time,seconds_elapsed,z,y,x
1778599335037000000,0.0,5.945566177368164,0.16809579730033875,7.8113694190979
1778599335047774271,0.010774271,5.960521221160889,0.1746760457754135,7.836493968963623
1778599335058548594,0.021548594,5.9264235496521,0.1333998590707779,7.820342540740967
1778599335069322917,0.032322917,5.874379634857178,0.14297115802764893,7.844869136810303
1778599335080097240,0.04309724,5.8713884353637695,0.18424734473228455,7.785646915435791
1778599335090871562,0.053871562000000005,5.8713884353637695,0.18424734473228455,7.785646915435791
1778599335101645833,0.064645833,5.963512420654297,0.17347964644432068,7.858627796173096
1778599335112420104,0.075420104,5.915655612945557,0.16510476171970367,7.8317084312438965
1778599335123194427,0.086194427,5.904888153076172,0.14775680005550385,7.868797302246094
1778599335133968750,0.09696875,5.921638011932373,0.13459627330303192,7.893921852111816
1778599335144743073,0.10774307300000001,6.002993583679199,0.12203395366668701,7.857431411743164
1778599335155517292,0.11851729200000001,6.104090690612793,0.12801600992679596,7.8077802658081055
1778599335166291615,0.129291615,6.128018856048584,0.13280165195465088,7.790432453155518
1778599335177065937,0.140065937,6.111867427825928,0.12203395366668701,7.798209190368652
1778599335187840260,0.15084026,6.073582172393799,0.15074782073497772,7.849654674530029
1778599335198614479,0.161614479,5.993422508239746,0.15074782073497772,7.835297584533691
1778599335209388854,0.172388854,6.062216281890869,0.16510476171970367,7.840083599090576
1778599335220163229,0.183163229,6.062216281890869,0.16510476171970367,7.840083599090576
1778599335230937500,0.1939375,6.096313953399658,0.1585244983434677,7.810771465301514
1778599335241711771,0.20471177100000001,6.034100532531738,0.1459621787071228,7.840083599090576
1778599335252486094,0.21548609400000002,6.0125651359558105,0.16151553392410278,7.793423175811768
1778599335263260417,0.22626041700000002,6.043671607971191,0.13519448041915894,7.769495010375977
1778599335274034740,0.23703474000000002,6.041278839111328,0.13459627330303192,7.787441253662109
1778599335284809062,0.24780906200000002,6.026922225952148,0.19202402234077454,7.788637638092041
1778599335295583333,0.258583333,6.026922225952148,0.19202402234077454,7.788637638092041
1778599335306357604,0.26935760400000003,5.997011661529541,0.17587246000766754,7.782655715942383
1778599335317131927,0.280131927,5.963512420654297,0.16869398951530457,7.77607536315918
1778599335327906146,0.29090614600000003,6.020939826965332,0.1621137410402298,7.76470947265625
1778599335338680573,0.301680573,6.091528415679932,0.19262222945690155,7.737192153930664
1778599335349454896,0.31245489600000004,6.128018856048584,0.1782652884721756,7.730013370513916
1778599335360229167,0.32322916700000004,6.1465630531311035,0.18305093050003052,7.726424217224121
1778599335371003437,0.334003437,6.079564094543457,0.16031911969184875,7.793423175811768
1778599335381777760,0.34477776000000004,6.079564094543457,0.16031911969184875,7.793423175811768
1778599335392552083,0.355552083,6.091528415679932,0.12861421704292297,7.87777042388916
1778599335403326406,0.36632640600000005,6.091528415679932,0.13998012244701385,7.844270706176758
1778599335414100729,0.377100729,6.0849480628967285,0.15553347766399384,7.863413333892822
1778599335424875052,0.387875052,6.059225082397461,0.12801600992679596,7.856832981109619
1778599335435649375,0.39864937500000003,6.059225082397461,0.12801600992679596,7.856832981109619
1778599335446423646,0.40942364600000003,6.08195686340332,0.11126625537872314,7.8795647621154785
1778599335457197917,0.42019791700000003,6.031707763671875,0.10887342691421509,7.830512046813965
1778599335467972240,0.43097224,6.093921184539795,0.09152546525001526,7.802994728088379
1778599335478746562,0.441746562,6.1226348876953125,0.07776673883199692,7.774280548095703
1778599335489520885,0.45252088500000004,6.053243160247803,0.11126625537872314,7.798209190368652
1778599335500295208,0.463295208,5.960521221160889,0.15672987699508667,7.797012805938721
1778599335511069531,0.47406953100000004,6.036493301391602,0.15194423496723175,7.8526458740234375
1778599335521843854,0.484843854,6.13699197769165,0.10767702013254166,7.874779224395752
1778599335532618125,0.495618125,6.121438503265381,0.14715859293937683,7.87777042388916
1778599335543392396,0.5063923960000001,6.081358909606934,0.18783657252788544,7.8664045333862305
1778599335554166771,0.5171667710000001,5.959922790527344,0.137587308883667,7.806583881378174
1778599335564941042,0.527941042,5.959922790527344,0.137587308883667,7.806583881378174
1778599335575715365,0.5387153650000001,5.942574977874756,0.18125630915164948,7.800003528594971
1778599335586489687,0.549489687,6.041877269744873,0.14476576447486877,7.796414375305176
1778599335597264010,0.56026401,6.013163089752197,0.15672987699508667,7.819146156311035
1778599335608038333,0.5710383330000001,5.921638011932373,0.20518454909324646,7.787441253662109
1778599335618812656,0.581812656,5.897709846496582,0.2147558331489563,7.785646915435791
1778599335629586979,0.592586979,5.8953166007995605,0.2069791555404663,7.810771465301514
1778599335640361250,0.6033612500000001,5.883352756500244,0.20997019112110138,7.8424763679504395
1778599335651135521,0.614135521,5.921638011932373,0.2069791555404663,7.82692289352417
1778599335661909896,0.624909896,6.038288116455078,0.20338992774486542,7.768298625946045
1778599335672684271,0.635684271,6.115456581115723,0.1860419660806656,7.759923934936523
1778599335683458490,0.64645849,6.135795593261719,0.1782652884721756,7.7563347816467285
1778599335694232812,0.657232812,6.049654006958008,0.19680966436862946,7.794619560241699
1778599335705007135,0.6680071350000001,6.103492259979248,0.2273181527853012,7.777870178222656
1778599335715781458,0.678781458,6.138786315917969,0.17288143932819366,7.750352382659912
1778599335726555781,0.689555781,6.0879387855529785,0.20997019112110138,7.796414375305176
1778599335737330104,0.7003301040000001,6.0610198974609375,0.21595224738121033,7.8113694190979
1778599335748104375,0.711104375,6.029314994812012,0.16869398951530457,7.8041911125183105
1778599335758878750,0.72187875,5.971887111663818,0.18723836541175842,7.836493968963623
1778599335769653021,0.7326530210000001,5.958726406097412,0.1824527233839035,7.82692289352417
1778599335780427292,0.743427292,5.928217887878418,0.18723836541175842,7.820342540740967
1778599335791201615,0.754201615,5.928816318511963,0.20817556977272034,7.814360618591309
1778599335801975937,0.764975937,5.987440586090088,0.19381862878799438,7.802994728088379
1778599335812750260,0.77575026,5.987440586090088,0.19381862878799438,7.802994728088379
1778599335823524583,0.786524583,5.840879917144775,0.15553347766399384,7.813762187957764
1778599335834298906,0.7972989060000001,5.902495384216309,0.20039889216423035,7.904689788818359
1778599335845073229,0.808073229,5.819942951202393,0.19740787148475647,7.859225749969482
1778599335855847552,0.818847552,5.904289722442627,0.2189432680606842,7.844869136810303
1778599335866621875,0.8296218750000001,5.959922790527344,0.1950150430202484,7.863413333892822
1778599335877396146,0.840396146,5.982655048370361,0.18783657252788544,7.860422611236572
1778599335888170521,0.851170521,6.007779598236084,0.1860419660806656,7.828119277954102
1778599335898944792,0.8619447920000001,6.070590972900391,0.15732808411121368,7.791628837585449
1778599335909719062,0.872719062,6.150152206420898,0.1459621787071228,7.771289825439453
1778599335920493437,0.883493437,6.2105712890625,0.11605189740657806,7.817351341247559
1778599335931267708,0.8942677080000001,6.1088762283325195,0.14775680005550385,7.795217990875244
1778599335942042031,0.905042031,6.096313953399658,0.1621137410402298,7.801199913024902
1778599335952816354,0.915816354,6.095715522766113,0.18125630915164948,7.8317084312438965
1778599335963590677,0.9265906770000001,6.054439544677734,0.19740787148475647,7.854440212249756
1778599335974365000,0.937365,6.008377552032471,0.21415762603282928,7.856832981109619
1778599335985139323,0.948139323,5.901298999786377,0.2225325107574463,7.9627156257629395
1778599335995913646,0.9589136460000001,5.901298999786377,0.2225325107574463,7.9627156257629395
1778599336006687969,0.9696879690000001,5.909673690795898,0.20997019112110138,7.854440212249756
1778599336017462292,0.980462292,5.894718647003174,0.2063809484243393,7.828119277954102
1778599336028236562,0.9912365620000001,5.946164131164551,0.2147558331489563,7.809575080871582
1778599336039010937,1.002010937,5.946164131164551,0.2147558331489563,7.809575080871582
1778599336049785208,1.0127852080000002,5.977869033813477,0.20937198400497437,7.819146156311035
1778599336060559479,1.023559479,6.020939826965332,0.23330020904541016,7.8287177085876465
1778599336071333854,1.034333854,5.995815277099609,0.259621262550354,7.762914657592773
1778599336082108125,1.045108125,6.006583213806152,0.2512463629245758,7.805985450744629
1778599336092882500,1.0558825,6.058028697967529,0.259621262550354,7.8424763679504395
1778599336103656771,1.0666567710000001,6.065805435180664,0.243469700217247,7.808976650238037
1778599336114431094,1.077431094,6.053243160247803,0.268594354391098,7.792226791381836
1778599336125205417,1.0882054170000002,5.994020938873291,0.22851456701755524,7.738986492156982
1778599336135979740,1.09897974,6.0640106201171875,0.23210379481315613,7.759923934936523
1778599336146754062,1.1097540620000002,6.079564094543457,0.2189432680606842,7.818548202514648
1778599336157528385,1.120528385,6.051448345184326,0.22133609652519226,7.786843299865723
1778599336168302708,1.131302708,6.051448345184326,0.22133609652519226,7.786843299865723
1778599336179077031,1.1420770310000001,5.956932067871094,0.19381862878799438,7.869993686676025
1778599336189851354,1.152851354,5.956932067871094,0.19381862878799438,7.869993686676025
1778599336200625677,1.163625677,5.923432350158691,0.2273181527853012,7.8287177085876465
1778599336211400000,1.1744,5.923432350158691,0.2273181527853012,7.8287177085876465
1778599336222174323,1.185174323,5.9509501457214355,0.2069791555404663,7.814360618591309
1778599336232948646,1.1959486460000002,5.979065418243408,0.2063809484243393,7.837690353393555
1778599336243722969,1.206722969,6.081358909606934,0.20159530639648438,7.88913631439209
1778599336254497292,1.217497292,6.073582172393799,0.18125630915164948,7.847859859466553
1778599336265271562,1.228271562,5.994020938873291,0.1782652884721756,7.832904815673828
1778599336276045833,1.239045833,5.971887111663818,0.17647066712379456,7.861618995666504
1778599336286820208,1.249820208,5.974279880523682,0.1824527233839035,7.884350776672363
1778599336297594479,1.260594479,6.033502101898193,0.20338992774486542,7.895716667175293
1778599336308368854,1.271368854,6.041877269744873,0.20518454909324646,7.857431411743164
1778599336319143125,1.2821431250000002,6.006583213806152,0.2189432680606842,7.822137355804443
1778599336329917448,1.292917448,5.974279880523682,0.22911277413368225,7.810771465301514
1778599336340691771,1.303691771,5.944369792938232,0.20937198400497437,7.818548202514648
1778599336351466094,1.3144660940000001,5.866602897644043,0.1902294009923935,7.806583881378174
1778599336362240417,1.325240417,5.8612189292907715,0.21655045449733734,7.767700672149658
1778599336373014740,1.33601474,5.9264235496521,0.25004997849464417,7.772486209869385
1778599336383789062,1.346789062,5.903093338012695,0.29312077164649963,7.738986492156982
1778599336394563385,1.3575633850000002,5.9407806396484375,0.32961133122444153,7.763513088226318
1778599336405337708,1.368337708,5.995815277099609,0.29790642857551575,7.777271747589111
1778599336416112031,1.379112031,6.1088762283325195,0.23988047242164612,7.809575080871582
1778599336426886354,1.3898863540000002,6.110671043395996,0.2147558331489563,7.768298625946045
1778599336437660677,1.400660677,6.065805435180664,0.23330020904541016,7.779066562652588
1778599336448435000,1.411435,6.0610198974609375,0.20338992774486542,7.825726509094238
1778599336459209323,1.4222093230000001,6.022734642028809,0.2069791555404663,7.8424763679504395
1778599336469983646,1.432983646,6.017350673675537,0.21296121180057526,7.903493404388428
1778599336480757969,1.4437579690000002,6.0125651359558105,0.21595224738121033,7.862216949462891
1778599336491532292,1.4545322920000001,6.078367710113525,0.20817556977272034,7.87358283996582
1778599336502306615,1.465306615,6.062814235687256,0.20817556977272034,7.8113694190979
1778599336513080937,1.476080937,6.060421466827393,0.21296121180057526,7.798209190368652
1778599336523855260,1.48685526,6.067600250244141,0.22372891008853912,7.779066562652588
1778599336534629583,1.4976295830000002,6.0508503913879395,0.22552353143692017,7.782655715942383
1778599336545403854,1.508403854,6.062814235687256,0.22133609652519226,7.820940971374512
1778599336556178229,1.519178229,6.025725841522217,0.22432711720466614,7.832904815673828
1778599336566952500,1.5299525,5.947958946228027,0.24287149310112,7.836493968963623
1778599336577726875,1.540726875,5.868995666503906,0.24526432156562805,7.818548202514648
1778599336588501146,1.551501146,5.86421012878418,0.24825534224510193,7.8317084312438965
1778599336599275521,1.5622755210000001,5.9336018562316895,0.22911277413368225,7.819146156311035
1778599336610049792,1.5730497920000002,5.931807518005371,0.24646073579788208,7.833503246307373
1778599336620824167,1.5838241670000002,5.904888153076172,0.26440688967704773,7.828119277954102
1778599336631598437,1.5945984370000001,5.918646812438965,0.2548356056213379,7.834699630737305
1778599336642372708,1.6053727080000002,5.918646812438965,0.2548356056213379,7.834699630737305
1778599336653147083,1.6161470830000002,5.8713884353637695,0.24466611444950104,7.829914093017578
1778599336663921354,1.626921354,5.927021503448486,0.23389841616153717,7.849654674530029
1778599336674695729,1.637695729,5.974279880523682,0.2309073805809021,7.834699630737305
1778599336685470000,1.64847,5.9336018562316895,0.2350948303937912,7.795217990875244
1778599336696244323,1.659244323,6.005386829376221,0.25004997849464417,7.786843299865723
1778599336707018646,1.6700186460000002,6.0987067222595215,0.24526432156562805,7.774280548095703
1778599336717793021,1.6807930210000002,6.0987067222595215,0.24526432156562805,7.774280548095703
1778599336728567292,1.691567292,6.105885028839111,0.23330020904541016,7.843074321746826
1778599336739341615,1.7023416150000001,6.137589931488037,0.22911277413368225,7.869993686676025
1778599336750115937,1.7131159370000002,6.089135646820068,0.24287149310112,7.864011764526367
1778599336760890260,1.7238902600000001,6.019145488739014,0.25423741340637207,7.852047443389893
1778599336771664583,1.734664583,6.009573936462402,0.267397940158844,7.858627796173096
1778599336782438906,1.7454389060000002,6.059225082397461,0.2356930375099182,7.892127513885498
1778599336793213229,1.756213229,6.0466628074646,0.27038896083831787,7.808976650238037
1778599336803987552,1.766987552,5.955735683441162,0.25304099917411804,7.810771465301514
1778599336814761875,1.7777618750000002,5.955735683441162,0.25304099917411804,7.810771465301514
1778599336825536198,1.788536198,5.97308349609375,0.267397940158844,7.813762187957764
1778599336836310521,1.7993105210000002,6.014359951019287,0.25782662630081177,7.844270706176758
1778599336847084844,1.8100848440000001,6.028716564178467,0.259621262550354,7.801199913024902
1778599336857859167,1.820859167,6.0508503913879395,0.23030917346477509,7.835297584533691
1778599336868633542,1.831633542,6.022136211395264,0.23688943684101105,7.847859859466553
1778599336879407812,1.842407812,5.965306758880615,0.25782662630081177,7.829914093017578
1778599336890182135,1.8531821350000002,5.9575300216674805,0.28115665912628174,7.810771465301514
1778599336900956458,1.863956458,6.038886070251465,0.267397940158844,7.81555700302124
1778599336911730781,1.874730781,6.03529691696167,0.26919254660606384,7.823333740234375
1778599336922505104,1.8855051040000002,5.9647088050842285,0.2787638306617737,7.7730841636657715
1778599336933279479,1.8962794790000002,5.924030780792236,0.27337998151779175,7.791628837585449
1778599336944053750,1.9070537500000002,5.928217887878418,0.24287149310112,7.8113694190979
1778599336954828073,1.9178280730000001,5.854638576507568,0.243469700217247,7.791628837585449
1778599336965602396,1.928602396,5.912664890289307,0.26560330390930176,7.810771465301514
1778599336976376667,1.939376667,5.963512420654297,0.2273181527853012,7.828119277954102
1778599336987151042,1.9501510420000001,5.934798240661621,0.20997019112110138,7.828119277954102
1778599336997925312,1.960925312,5.842076301574707,0.23688943684101105,7.817351341247559
1778599337008699687,1.971699687,5.928217887878418,0.2225325107574463,7.820940971374512
1778599337019473958,1.9824739580000001,6.024528980255127,0.17288143932819366,7.758129119873047
1778599337030248333,1.9932483330000001,5.990431308746338,0.13280165195465088,7.77607536315918
1778599337041022604,2.004022604,6.0400824546813965,0.10648060590028763,7.777271747589111
1778599337051796979,2.014796979,6.117849349975586,0.08195417374372482,7.744370460510254
1778599337062571250,2.02557125,6.116652965545654,0.10767702013254166,7.797012805938721
1778599337073345625,2.036345625,6.020939826965332,0.1256231814622879,7.832904815673828
1778599337084119896,2.0471198960000003,5.956932067871094,0.12323036789894104,7.818548202514648
1778599337094894167,2.057894167,5.900102615356445,0.15732808411121368,7.810771465301514
1778599337105668542,2.068668542,5.900102615356445,0.15732808411121368,7.810771465301514
1778599337116442812,2.079442812,5.842076301574707,0.17647066712379456,7.844869136810303
1778599337127217187,2.090217187,5.85703182220459,0.22432711720466614,7.850851058959961
1778599337137991458,2.100991458,5.966503143310547,0.24945175647735596,7.849056243896484
1778599337148765833,2.111765833,6.048457622528076,0.22372891008853912,7.819146156311035
1778599337159540104,2.122540104,6.003592014312744,0.2350948303937912,7.849654674530029
1778599337170314323,2.133314323,5.977869033813477,0.24646073579788208,7.820342540740967
1778599337181088750,2.1440887500000003,5.987440586090088,0.24167509377002716,7.805985450744629
1778599337191863073,2.154863073,6.059225082397461,0.2386840581893921,7.878368377685547
1778599337202637396,2.165637396,6.1465630531311035,0.2560320198535919,7.856832981109619
1778599337213411719,2.1764117190000003,6.140581130981445,0.25722843408584595,7.892127513885498
1778599337224186042,2.187186042,6.148955821990967,0.26919254660606384,7.881359577178955
1778599337234960365,2.197960365,6.119643688201904,0.2715853750705719,7.799405574798584
1778599337245734687,2.208734687,6.104090690612793,0.2799602448940277,7.844869136810303
1778599337256509010,2.2195090100000003,6.121438503265381,0.3074777126312256,7.884350776672363
1778599337267283333,2.230283333,6.116652965545654,0.31345975399017334,7.828119277954102
1778599337278057656,2.241057656,6.161518096923828,0.27696922421455383,7.789834022521973
1778599337288831979,2.2518319790000003,6.120242118835449,0.20997019112110138,7.797012805938721
1778599337299606302,2.262606302,6.0125651359558105,0.2189432680606842,7.790432453155518
1778599337310380625,2.273380625,6.025725841522217,0.22073788940906525,7.810771465301514
1778599337321154948,2.2841549480000003,6.034100532531738,0.2021935135126114,7.814360618591309
1778599337331929271,2.294929271,5.9509501457214355,0.24825534224510193,7.820342540740967
1778599337342703594,2.305703594,5.921638011932373,0.22073788940906525,7.810771465301514
1778599337353477917,2.3164779170000003,5.921638011932373,0.22073788940906525,7.810771465301514
1778599337364252240,2.32725224,5.96171760559082,0.2189432680606842,7.813762187957764
1778599337375026562,2.338026562,5.98444938659668,0.2063809484243393,7.788637638092041
1778599337385800885,2.348800885,6.004788398742676,0.18305093050003052,7.795217990875244
1778599337396575208,2.3595752080000003,5.941378593444824,0.21176479756832123,7.769495010375977
1778599337407349531,2.370349531,5.969494342803955,0.20518454909324646,7.801199913024902
1778599337418123854,2.381123854,6.046064376831055,0.20937198400497437,7.817351341247559
1778599337428898177,2.3918981770000003,6.078367710113525,0.23210379481315613,7.806583881378174
1778599337439672500,2.4026725,6.1226348876953125,0.2356930375099182,7.849654674530029
1778599337450446823,2.413446823,6.110072612762451,0.21595224738121033,7.874779224395752
1778599337461221146,2.4242211460000003,6.0370917320251465,0.21415762603282928,7.837690353393555
1778599337471995469,2.434995469,6.052644729614258,0.20937198400497437,7.818548202514648
1778599337482769792,2.445769792,6.118447303771973,0.19680966436862946,7.847261905670166
1778599337493544115,2.4565441150000003,5.946164131164551,0.24047867953777313,7.844270706176758
1778599337504318437,2.4673184370000003,5.997011661529541,0.26440688967704773,7.832904815673828
1778599337515092760,2.47809276,6.031707763671875,0.20458634197711945,7.836493968963623
1778599337525867083,2.488867083,6.031707763671875,0.20458634197711945,7.836493968963623
1778599337536641458,2.499641458,6.003592014312744,0.22432711720466614,7.791628837585449
1778599337547415729,2.510415729,6.003592014312744,0.22432711720466614,7.791628837585449
1778599337558190104,2.521190104,5.962316036224365,0.2189432680606842,7.8077802658081055
1778599337568964375,2.5319643750000003,5.980860233306885,0.20817556977272034,7.847261905670166
1778599337579738750,2.5427387500000003,5.990431308746338,0.21954147517681122,7.825128078460693
1778599337590513125,2.5535131250000003,5.990431308746338,0.21954147517681122,7.825128078460693
1778599337601287396,2.564287396,5.993422508239746,0.18544375896453857,7.790432453155518
1778599337612061771,2.575061771,5.968297958374023,0.1860419660806656,7.770691394805908
1778599337622836042,2.585836042,5.909075736999512,0.18723836541175842,7.791628837585449
1778599337633610417,2.596610417,5.947360515594482,0.2069791555404663,7.814360618591309
1778599337644384740,2.60738474,5.947360515594482,0.2069791555404663,7.814360618591309
1778599337655159062,2.618159062,6.014957904815674,0.2069791555404663,7.820342540740967
1778599337665933385,2.6289333850000003,5.986244201660156,0.24167509377002716,7.7802629470825195
1778599337676707708,2.639707708,6.056233882904053,0.23030917346477509,7.853842258453369
1778599337687482083,2.650482083,6.043073654174805,0.2021935135126114,7.878368377685547
1778599337698256354,2.6612563540000003,6.027520179748535,0.20039889216423035,7.910073280334473
1778599337709030677,2.672030677,6.006583213806152,0.22552353143692017,7.893921852111816
1778599337719805000,2.682805,6.007779598236084,0.2147558331489563,7.822137355804443
1778599337730579323,2.6935793230000002,6.084349632263184,0.2069791555404663,7.802994728088379
1778599337741353646,2.7043536460000004,6.084349632263184,0.2069791555404663,7.802994728088379
1778599337752128021,2.715128021,6.096313953399658,0.1824527233839035,7.793423175811768
1778599337762902396,2.725902396,6.054439544677734,0.18125630915164948,7.796414375305176
1778599337773676667,2.7366766670000002,5.950351715087891,0.20039889216423035,7.774280548095703
1778599337784451042,2.7474510420000002,5.874379634857178,0.22851456701755524,7.756932735443115
1778599337795225365,2.7582253650000004,5.819942951202393,0.23030917346477509,7.774280548095703
1778599337805999687,2.768999687,5.788238048553467,0.21954147517681122,7.762914657592773
1778599337816774010,2.77977401,5.767300605773926,0.18903298676013947,7.742575645446777
1778599337827548333,2.7905483330000003,5.8582282066345215,0.1621137410402298,7.759923934936523
1778599337838322656,2.801322656,5.8582282066345215,0.1621137410402298,7.759923934936523
1778599337849096979,2.812096979,5.931807518005371,0.17168502509593964,7.739584922790527
1778599337859871302,2.8228713020000002,6.017350673675537,0.1746760457754135,7.742575645446777
1778599337870645625,2.8336456250000004,6.08614444732666,0.16390834748744965,7.816154956817627
1778599337881420000,2.8444200000000004,6.062814235687256,0.14895321428775787,7.840083599090576
1778599337892194271,2.8551942710000002,5.97308349609375,0.17347964644432068,7.871788501739502
1778599337902968646,2.8659686460000002,5.979065418243408,0.2273181527853012,7.87358283996582
1778599337913743021,2.8767430210000002,6.062814235687256,0.24167509377002716,7.854440212249756
1778599337924517344,2.8875173440000004,6.115456581115723,0.30508488416671753,7.865208148956299
1778599337935291667,2.898291667,6.115456581115723,0.30508488416671753,7.865208148956299
1778599337946065990,2.90906599,6.116652965545654,0.2961117923259735,7.8317084312438965
1778599337956840312,2.9198403120000003,6.125027656555176,0.26560330390930176,7.840083599090576
1778599337967614635,2.930614635,6.118447303771973,0.26560330390930176,7.814360618591309
1778599337978388958,2.941388958,6.083153247833252,0.2847459018230438,7.775477409362793
1778599337989163333,2.952163333,6.0747785568237305,0.268594354391098,7.793423175811768
1778599337999937604,2.9629376040000004,6.024528980255127,0.2799602448940277,7.804789066314697
1778599338010711979,2.9737119790000004,5.907280921936035,0.2847459018230438,7.844869136810303
1778599338021486354,2.9844863540000004,5.9060845375061035,0.28594231605529785,7.902296543121338
1778599338032260625,2.9952606250000002,5.9300127029418945,0.25004997849464417,7.904689788818359
1778599338043035000,3.0060350000000002,5.97308349609375,0.24287149310112,7.92861795425415
1778599338053809323,3.0168093230000004,5.952146530151367,0.2350948303937912,7.92861795425415
1778599338064583646,3.027583646,5.987440586090088,0.22073788940906525,7.956135272979736
1778599338075357969,3.038357969,5.966503143310547,0.2063809484243393,7.849654674530029
1778599338086132292,3.0491322920000004,5.966503143310547,0.2063809484243393,7.849654674530029
1778599338096906667,3.0599066670000004,5.979065418243408,0.18903298676013947,7.846065521240234
1778599338107680937,3.070680937,6.075376510620117,0.17168502509593964,7.825726509094238
1778599338118455312,3.081455312,6.0466628074646,0.13998012244701385,7.802994728088379
1778599338129229687,3.092229687,6.004788398742676,0.15672987699508667,7.785646915435791
1778599338140004010,3.1030040100000003,5.985645771026611,0.18783657252788544,7.731209754943848
1778599338150778333,3.1137783330000004,6.08195686340332,0.18424734473228455,7.766504287719727
1778599338161552656,3.124552656,6.0747785568237305,0.17347964644432068,7.763513088226318
1778599338172326979,3.1353269790000002,6.0610198974609375,0.19680966436862946,7.790432453155518
1778599338183101302,3.1461013020000004,6.108277797698975,0.18125630915164948,7.834699630737305
1778599338193875625,3.156875625,6.03529691696167,0.18424734473228455,7.857431411743164
1778599338204650000,3.16765,5.937789440155029,0.22911277413368225,7.836493968963623
1778599338215424375,3.178424375,6.010172367095947,0.23688943684101105,7.817351341247559
1778599338226198646,3.1891986460000004,6.010172367095947,0.23688943684101105,7.817351341247559
1778599338236973021,3.1999730210000004,6.041278839111328,0.259621262550354,7.816154956817627
1778599338247747344,3.210747344,6.032305717468262,0.23808585107326508,7.8317084312438965
1778599338258521562,3.2215215620000004,5.983851432800293,0.23030917346477509,7.82692289352417
1778599338269296042,3.232296042,5.962316036224365,0.2225325107574463,7.810771465301514
1778599338280070312,3.2430703120000004,5.9300127029418945,0.2787638306617737,7.8424763679504395
1778599338290844687,3.2538446870000004,6.017350673675537,0.25722843408584595,7.87358283996582
1778599338301619062,3.2646190620000004,6.047859191894531,0.2667997181415558,7.852047443389893
1778599338312393333,3.2753933330000002,6.14835786819458,0.24466611444950104,7.844270706176758
1778599338323167708,3.2861677080000002,6.14835786819458,0.24466611444950104,7.844270706176758
1778599338333942031,3.2969420310000004,6.071787357330322,0.24466611444950104,7.814360618591309
1778599338344716354,3.307716354,5.979065418243408,0.2356930375099182,7.8556365966796875
1778599338355490677,3.318490677,6.027520179748535,0.21954147517681122,7.868797302246094
1778599338366265000,3.3292650000000004,6.027520179748535,0.21954147517681122,7.868797302246094
1778599338377039375,3.3400393750000004,6.022136211395264,0.1860419660806656,7.849056243896484
1778599338387813750,3.3508137500000004,6.0161542892456055,0.18783657252788544,7.853842258453369
1778599338398588073,3.361588073,5.9575300216674805,0.19262222945690155,7.830512046813965
1778599338409362396,3.372362396,5.912664890289307,0.1824527233839035,7.81555700302124
1778599338420136719,3.3831367190000003,5.907280921936035,0.1663011759519577,7.823333740234375
1778599338430911042,3.393911042,5.965306758880615,0.13280165195465088,7.849654674530029
1778599338441685417,3.404685417,5.965306758880615,0.13280165195465088,7.849654674530029
1778599338452459792,3.415459792,5.977869033813477,0.17946170270442963,7.844270706176758
1778599338463234062,3.4262340620000002,5.9539408683776855,0.16689938306808472,7.818548202514648
1778599338474008437,3.4370084370000002,5.9539408683776855,0.16689938306808472,7.818548202514648
1778599338484782760,3.4477827600000004,5.934798240661621,0.18305093050003052,7.8113694190979
1778599338495557083,3.458557083,5.913861274719238,0.18723836541175842,7.823931694030762
1778599338506331458,3.469331458,5.9300127029418945,0.17168502509593964,7.834699630737305
1778599338517105833,3.480105833,5.924030780792236,0.17347964644432068,7.793423175811768
1778599338527880104,3.4908801040000004,5.907280921936035,0.23210379481315613,7.789834022521973
1778599338538654479,3.5016544790000004,5.901298999786377,0.25304099917411804,7.800003528594971
1778599338549428802,3.512428802,5.960521221160889,0.23030917346477509,7.817351341247559
1778599338560203125,3.523203125,5.937789440155029,0.2638086974620819,7.865208148956299
1778599338570977448,3.5339774480000004,5.924030780792236,0.24825534224510193,7.895716667175293
1778599338581751771,3.544751771,5.900102615356445,0.2626122832298279,7.9005022048950195
1778599338592526146,3.555526146,5.8582282066345215,0.3026920557022095,7.849654674530029
1778599338603300521,3.566300521,5.952744483947754,0.29431718587875366,7.8526458740234375
1778599338614074844,3.577074844,6.029314994812012,0.268594354391098,7.883154392242432
1778599338624849167,3.5878491670000003,6.0610198974609375,0.29790642857551575,7.874779224395752
1778599338635623490,3.59862349,6.0400824546813965,0.3038884699344635,7.869993686676025
1778599338646397812,3.609397812,6.02393102645874,0.3038884699344635,7.834699630737305
1778599338657172187,3.620172187,5.976074695587158,0.2847459018230438,7.797012805938721
1778599338667946562,3.630946562,5.977869033813477,0.268594354391098,7.833503246307373
1778599338678720833,3.6417208330000004,5.8821563720703125,0.27337998151779175,7.834699630737305
1778599338689495208,3.6524952080000004,5.816353797912598,0.3008974492549896,7.806583881378174
1778599338700269531,3.663269531,5.8851470947265625,0.32303106784820557,7.844270706176758
1778599338711043854,3.674043854,5.934798240661621,0.3278166949748993,7.844270706176758
1778599338721818229,3.6848182290000002,5.969494342803955,0.2913261651992798,7.8113694190979
1778599338732592604,3.6955926040000002,6.004788398742676,0.25722843408584595,7.82692289352417
1778599338743366927,3.7063669270000004,5.982655048370361,0.23988047242164612,7.818548202514648
1778599338754141250,3.71714125,5.894718647003174,0.24287149310112,7.823931694030762
1778599338764915573,3.727915573,5.843871116638184,0.2667997181415558,7.802994728088379
1778599338775689896,3.7386898960000003,5.866004943847656,0.24526432156562805,7.81555700302124
1778599338786464271,3.7494642710000003,5.913861274719238,0.25004997849464417,7.822137355804443
1778599338797238646,3.7602386460000004,5.998208045959473,0.24466611444950104,7.8077802658081055
1778599338808012969,3.771012969,6.047859191894531,0.23210379481315613,7.8077802658081055
1778599338818787292,3.781787292,5.960521221160889,0.23808585107326508,7.869993686676025
1778599338829561615,3.7925616150000003,5.873781204223633,0.25004997849464417,7.893921852111816
1778599338840335937,3.8033359370000004,5.91087007522583,0.2590230405330658,7.921439170837402
1778599338851110312,3.8141103120000004,6.033502101898193,0.24825534224510193,7.892127513885498
1778599338861884687,3.8248846870000004,6.132206439971924,0.2638086974620819,7.890930652618408
1778599338872658958,3.8356589580000002,6.080162525177002,0.2590230405330658,7.911868095397949
1778599338883433333,3.8464333330000002,6.080162525177002,0.2590230405330658,7.911868095397949
1778599338894207656,3.8572076560000004,6.013163089752197,0.2763710021972656,7.925626754760742
1778599338904981979,3.867981979,6.0879387855529785,0.268594354391098,7.933403491973877
1778599338915756354,3.878756354,6.065207004547119,0.2626122832298279,7.8795647621154785
1778599338926530729,3.889530729,6.065207004547119,0.2626122832298279,7.8795647621154785
1778599338937305000,3.9003050000000004,6.014957904815674,0.28594231605529785,7.884350776672363
1778599338948079375,3.9110793750000004,6.010172367095947,0.2913261651992798,7.828119277954102
1778599338958853698,3.921853698,5.934798240661621,0.26081767678260803,7.785646915435791
1778599338969627812,3.9326278120000002,5.9060845375061035,0.259621262550354,7.796414375305176
1778599338980402396,3.943402396,5.904888153076172,0.28175488114356995,7.806583881378174
1778599338991176771,3.954176771,5.880959987640381,0.3074777126312256,7.8317084312438965
1778599339001951094,3.9649510940000003,5.902495384216309,0.3170489966869354,7.849056243896484
1778599339012725417,3.975725417,5.883352756500244,0.3164508044719696,7.833503246307373
1778599339023499740,3.98649974,5.811567783355713,0.33379876613616943,7.830512046813965
1778599339034274062,3.9972740620000002,5.810371398925781,0.3194418251514435,7.8317084312438965
1778599339045048437,4.008048437,5.918646812438965,0.29790642857551575,7.796414375305176
1778599339055822812,4.018822812000001,5.9539408683776855,0.25782662630081177,7.7802629470825195
1778599339066597135,4.029597135,5.995815277099609,0.26081767678260803,7.8077802658081055
1778599339077371458,4.040371458,5.947958946228027,0.24466611444950104,7.770691394805908
1778599339088145781,4.051145781000001,5.947958946228027,0.24466611444950104,7.770691394805908
1778599339098920104,4.061920104,5.960521221160889,0.23030917346477509,7.808976650238037
1778599339109694479,4.072694479,5.966503143310547,0.23808585107326508,7.809575080871582
1778599339120468854,4.083468854,5.966503143310547,0.23808585107326508,7.809575080871582
1778599339131243177,4.094243177,6.068796634674072,0.24646073579788208,7.874779224395752
1778599339142017500,4.105017500000001,6.103492259979248,0.23688943684101105,7.864011764526367
1778599339152791875,4.115791875,6.0610198974609375,0.26560330390930176,7.88913631439209
1778599339163566146,4.126566146,6.008377552032471,0.26440688967704773,7.87358283996582
1778599339174340521,4.1373405210000005,6.0125651359558105,0.22911277413368225,7.82692289352417
1778599339185114896,4.148114896,6.009573936462402,0.17347964644432068,7.820342540740967
1778599339195889219,4.158889219000001,5.9922261238098145,0.18065811693668365,7.8287177085876465
1778599339206663542,4.169663542,5.931807518005371,0.23210379481315613,7.812565803527832
1778599339217437917,4.180437917,5.937789440155029,0.2548356056213379,7.849654674530029
1778599339228212187,4.1912121870000005,5.907280921936035,0.27696922421455383,7.897511005401611
1778599339238986562,4.201986562,5.868995666503906,0.26440688967704773,7.922635555267334
1778599339249760937,4.2127609370000005,5.927021503448486,0.2512463629245758,7.9381890296936035
1778599339260535260,4.22353526,5.962316036224365,0.23389841616153717,7.922635555267334
1778599339271309583,4.234309583,5.941378593444824,0.23389841616153717,7.906484127044678
1778599339282083958,4.245083958,5.958726406097412,0.2626122832298279,7.864011764526367
1778599339292858333,4.255858333,6.0370917320251465,0.27816563844680786,7.839485168457031
1778599339303632656,4.2666326560000005,6.126224040985107,0.25304099917411804,7.789834022521973
1778599339314406979,4.277406979,6.137589931488037,0.243469700217247,7.805985450744629
1778599339325181302,4.288181302,6.123233318328857,0.25722843408584595,7.7802629470825195
1778599339335955625,4.2989556250000005,6.059225082397461,0.24047867953777313,7.797012805938721
1778599339346730000,4.30973,6.013163089752197,0.2476571500301361,7.8287177085876465
1778599339357504375,4.3205043750000005,5.997011661529541,0.2476571500301361,7.846065521240234
1778599339368278698,4.331278698,5.955137252807617,0.2638086974620819,7.861618995666504
1778599339379053021,4.342053021,5.955137252807617,0.2638086974620819,7.861618995666504
1778599339389827396,4.352827396,5.91924524307251,0.2829512655735016,7.883154392242432
1778599339400601667,4.363601667,5.8372907638549805,0.267397940158844,7.858627796173096
1778599339411376094,4.3743760940000005,5.794219970703125,0.23210379481315613,7.8317084312438965
1778599339422150417,4.385150417,5.856433391571045,0.21415762603282928,7.793423175811768
1778599339432924740,4.39592474,5.912066459655762,0.19740787148475647,7.801798343658447
1778599339443699167,4.406699167,5.965306758880615,0.2225325107574463,7.799405574798584
1778599339454473437,4.417473437,5.960521221160889,0.24047867953777313,7.8077802658081055
1778599339465247812,4.428247812,5.9575300216674805,0.243469700217247,7.81555700302124
1778599339476022135,4.439022135,5.888138294219971,0.2590230405330658,7.858627796173096
1778599339486796458,4.449796458000001,5.870790481567383,0.27038896083831787,7.884350776672363
1778599339497570833,4.460570833,5.863013744354248,0.259621262550354,7.8664045333862305
1778599339508345208,4.471345208000001,5.872584819793701,0.2763710021972656,7.908278942108154
1778599339519119531,4.482119531,5.913861274719238,0.2829512655735016,7.957930088043213
1778599339529893854,4.492893854,5.907878875732422,0.30209386348724365,7.93998384475708
1778599339540668229,4.5036682290000005,5.902495384216309,0.28953152894973755,7.902296543121338
1778599339551442604,4.514442604,6.000600814819336,0.27337998151779175,7.871788501739502
1778599339562216927,4.525216927000001,6.126224040985107,0.2590230405330658,7.825128078460693
1778599339572991250,4.53599125,6.116652965545654,0.2512463629245758,7.830512046813965
1778599339583765625,4.546765625,6.118447303771973,0.2715853750705719,7.846065521240234
1778599339594540000,4.55754,6.048457622528076,0.27816563844680786,7.835297584533691
1778599339605314323,4.568314323,6.117849349975586,0.28594231605529785,7.852047443389893
1778599339616088646,4.579088646000001,6.117849349975586,0.28594231605529785,7.852047443389893
1778599339626863021,4.589863021,6.139384746551514,0.2548356056213379,7.846065521240234
1778599339637637396,4.600637396000001,6.053243160247803,0.2925225794315338,7.823333740234375
1778599339648411771,4.611411771,6.017949104309082,0.3068794906139374,7.837690353393555
1778599339659186146,4.622186146000001,6.008377552032471,0.3038884699344635,7.8664045333862305
1778599339669960469,4.632960469,5.917450428009033,0.3008974492549896,7.852047443389893
1778599339680734792,4.643734792,5.839085578918457,0.2925225794315338,7.8424763679504395
1778599339691509167,4.6545091670000005,5.913861274719238,0.2626122832298279,7.8317084312438965
1778599339702283542,4.665283542,5.998806476593018,0.24945175647735596,7.844270706176758
1778599339713057865,4.676057865000001,5.9509501457214355,0.2925225794315338,7.836493968963623
1778599339723832187,4.686832187,5.9509501457214355,0.2925225794315338,7.836493968963623
1778599339734606562,4.697606562000001,5.979065418243408,0.2787638306617737,7.862216949462891
1778599339745380937,4.708380937,6.024528980255127,0.25304099917411804,7.853842258453369
1778599339756155260,4.71915526,6.0197434425354,0.25244277715682983,7.818548202514648
1778599339766929583,4.7299295830000005,5.976074695587158,0.2560320198535919,7.830512046813965
1778599339777703958,4.740703958,5.921638011932373,0.2638086974620819,7.852047443389893
1778599339788478333,4.7514783330000006,5.909075736999512,0.2799602448940277,7.810771465301514
1778599339799252708,4.762252708,5.933003902435303,0.2626122832298279,7.796414375305176
1778599339810027083,4.773027083000001,5.936593055725098,0.27816563844680786,7.823931694030762
1778599339820801406,4.783801406,5.901298999786377,0.3038884699344635,7.823931694030762
1778599339831575729,4.794575729,5.952146530151367,0.2883351147174835,7.847859859466553
1778599339842350104,4.805350104,6.017350673675537,0.2913261651992798,7.829914093017578
1778599339853124479,4.816124479,5.962316036224365,0.25244277715682983,7.790432453155518
1778599339863898802,4.8268988020000005,5.907878875732422,0.22851456701755524,7.868198871612549
1778599339874673229,4.837673229,5.889933109283447,0.259621262550354,7.868797302246094
1778599339885447552,4.8484475520000005,5.900102615356445,0.28594231605529785,7.839485168457031
1778599339896221875,4.859221875,6.055635929107666,0.28953152894973755,7.854440212249756
1778599339906996250,4.869996250000001,6.029314994812012,0.2883351147174835,7.860422611236572
1778599339917770625,4.880770625,5.986244201660156,0.275174617767334,7.895716667175293
1778599339928544948,4.891544948,5.9264235496521,0.26440688967704773,7.8795647621154785
1778599339939319271,4.9023192710000005,5.9264235496521,0.26440688967704773,7.8795647621154785
1778599339950093646,4.913093646,5.928816318511963,0.23988047242164612,7.872984886169434
1778599339960868021,4.9238680210000005,5.918646812438965,0.23808585107326508,7.865208148956299
1778599339971642396,4.934642396,5.918646812438965,0.2715853750705719,7.836493968963623
1778599339982416771,4.9454167710000005,5.920441627502441,0.2715853750705719,7.857431411743164
1778599339993191094,4.956191094,5.942574977874756,0.27337998151779175,7.825726509094238
1778599340003965417,4.966965417,5.971288681030273,0.2799602448940277,7.8664045333862305
1778599340014739792,4.977739792,6.011368751525879,0.27816563844680786,7.901698589324951
1778599340025514167,4.988514167,5.98444938659668,0.2907279431819916,7.82692289352417
1778599340036288542,4.999288542,6.028716564178467,0.268594354391098,7.832904815673828
1778599340047062917,5.010062917,6.028716564178467,0.268594354391098,7.832904815673828
1778599340057837240,5.0208372400000005,6.157928943634033,0.23808585107326508,7.82692289352417
1778599340068611562,5.031611562,6.157928943634033,0.23808585107326508,7.82692289352417
1778599340079385937,5.042385937000001,6.022734642028809,0.29431718587875366,7.823333740234375
1778599340090160312,5.053160312,6.022734642028809,0.29431718587875366,7.823333740234375
1778599340100934687,5.063934687000001,5.965306758880615,0.2787638306617737,7.841279983520508
1778599340111709062,5.074709062,5.942574977874756,0.275174617767334,7.878368377685547
1778599340122483385,5.085483385000001,5.997011661529541,0.22612173855304718,7.88076114654541
1778599340133257708,5.096257708,5.997011661529541,0.22612173855304718,7.88076114654541
1778599340144032135,5.107032135000001,6.011368751525879,0.259621262550354,7.869993686676025
1778599340154806458,5.1178064580000004,5.952744483947754,0.275174617767334,7.863413333892822
1778599340165580833,5.128580833,5.880361557006836,0.28953152894973755,7.858627796173096
1778599340176355208,5.1393552080000005,5.873781204223633,0.2907279431819916,7.871190071105957
1778599340187129531,5.150129531,5.943173408508301,0.2476571500301361,7.901698589324951
1778599340197903958,5.1609039580000005,5.963512420654297,0.23808585107326508,7.884350776672363
1778599340208678281,5.171678281,5.933003902435303,0.2626122832298279,7.863413333892822
1778599340219452604,5.182452604000001,5.98444938659668,0.27038896083831787,7.860422611236572
1778599340230226979,5.193226979,5.983851432800293,0.2512463629245758,7.856832981109619
1778599340241001354,5.204001354000001,5.937789440155029,0.25722843408584595,7.8382887840271
1778599340251775729,5.214775729,5.971288681030273,0.243469700217247,7.835297584533691
1778599340262550104,5.225550104000001,6.013163089752197,0.22851456701755524,7.847261905670166
1778599340273324427,5.2363244270000004,6.004788398742676,0.26201409101486206,7.8077802658081055
1778599340284098750,5.24709875,6.000600814819336,0.28115665912628174,7.832904815673828
1778599340294873125,5.257873125000001,5.92223596572876,0.2847459018230438,7.904689788818359
1778599340305647500,5.2686475,5.92223596572876,0.2847459018230438,7.904689788818359
1778599340316421875,5.279421875000001,5.9336018562316895,0.27038896083831787,7.913064479827881
1778599340327196250,5.29019625,5.92223596572876,0.27038896083831787,7.887341499328613
1778599340337970573,5.300970573000001,5.904888153076172,0.28654050827026367,7.8664045333862305
1778599340348744896,5.311744896,5.863013744354248,0.3122633695602417,7.846065521240234
1778599340359519323,5.322519323000001,5.890531063079834,0.3170489966869354,7.853842258453369
1778599340370293646,5.333293646,5.879165172576904,0.3002992272377014,7.823931694030762
1778599340381068073,5.344068073000001,5.879165172576904,0.3002992272377014,7.823931694030762
1778599340391842396,5.3548423960000004,5.9407806396484375,0.31046873331069946,7.895716667175293
1778599340402616771,5.365616771,6.003592014312744,0.32303106784820557,7.834699630737305
1778599340413391146,5.3763911460000005,6.011368751525879,0.2961117923259735,7.782057285308838
1778599340424165469,5.387165469,6.020939826965332,0.28594231605529785,7.812565803527832
1778599340434939896,5.3979398960000005,6.0161542892456055,0.29431718587875366,7.832904815673828
1778599340445714219,5.408714219,5.9407806396484375,0.2907279431819916,7.840083599090576
1778599340456488542,5.419488542000001,5.86421012878418,0.3074777126312256,7.812565803527832
1778599340467262917,5.430262917,5.867799282073975,0.31824541091918945,7.852047443389893
1778599340478037292,5.441037292000001,5.880361557006836,0.29730820655822754,7.858627796173096
1778599340488811667,5.451811667,5.867799282073975,0.28115665912628174,7.839485168457031
1778599340499586042,5.462586042000001,5.812166213989258,0.26440688967704773,7.835297584533691
1778599340510360417,5.473360417,5.852245807647705,0.26081767678260803,7.810771465301514
1778599340521134792,5.484134792000001,5.854638576507568,0.21595224738121033,7.800003528594971
1778599340531909115,5.4949091150000005,5.855237007141113,0.22432711720466614,7.846065521240234
1778599340542683437,5.505683437,6.044867992401123,0.2111666053533554,7.8664045333862305
1778599340553457812,5.5164578120000005,6.049654006958008,0.20159530639648438,7.8526458740234375
1778599340564232187,5.527232187,6.031707763671875,0.2273181527853012,7.9591264724731445
1778599340575006562,5.5380065620000005,5.998208045959473,0.23389841616153717,7.957930088043213
1778599340585780937,5.548780937,6.003592014312744,0.24526432156562805,7.903493404388428
1778599340596555260,5.559555260000001,5.983851432800293,0.24287149310112,7.88913631439209
1778599340607329687,5.570329687,5.956932067871094,0.2309073805809021,7.868198871612549
1778599340618104010,5.581104010000001,5.952744483947754,0.2309073805809021,7.8903326988220215
1778599340628878333,5.591878333,5.9407806396484375,0.268594354391098,7.914859294891357
1778599340639652708,5.602652708,5.96171760559082,0.29730820655822754,7.862216949462891
1778599340650427083,5.613427083,6.03529691696167,0.3002992272377014,7.859225749969482
1778599340661201406,5.624201406,6.091528415679932,0.2883351147174835,7.929215908050537
1778599340671975833,5.634975833,6.007779598236084,0.2907279431819916,7.881359577178955
1778599340682750208,5.645750208,5.935994625091553,0.268594354391098,7.857431411743164
1778599340693524583,5.656524583,5.962316036224365,0.2638086974620819,7.849654674530029
1778599340704298906,5.667298906,5.952744483947754,0.30209386348724365,7.887341499328613
1778599340715073229,5.678073229000001,5.952744483947754,0.30209386348724365,7.887341499328613
1778599340725847656,5.688847656,5.91087007522583,0.2847459018230438,7.847859859466553
1778599340736621979,5.699621979000001,5.840281963348389,0.2626122832298279,7.843074321746826
1778599340747396354,5.710396354,5.8343000411987305,0.2961117923259735,7.844270706176758
1778599340758170729,5.721170729000001,5.8343000411987305,0.2961117923259735,7.844270706176758
1778599340768945104,5.731945104,5.8582282066345215,0.3242274820804596,7.820940971374512
1778599340779719479,5.742719479000001,5.907878875732422,0.3248256742954254,7.804789066314697
1778599340790493802,5.753493802,5.9575300216674805,0.2835494875907898,7.812565803527832
1778599340801268229,5.764268229000001,5.986244201660156,0.2667997181415558,7.796414375305176
1778599340812042552,5.775042552,5.949155330657959,0.22552353143692017,7.8382887840271
1778599340822816875,5.785816875,5.936593055725098,0.20817556977272034,7.871788501739502
1778599340833591302,5.796591302,5.947958946228027,0.2063809484243393,7.913064479827881
1778599340844365625,5.807365625,5.86002254486084,0.22552353143692017,7.909475326538086
1778599340855140000,5.8181400000000005,5.907280921936035,0.23988047242164612,7.893921852111816
1778599340865914375,5.828914375,6.055635929107666,0.23988047242164612,7.846065521240234
1778599340876688750,5.8396887500000005,6.0610198974609375,0.23210379481315613,7.841279983520508
1778599340887463125,5.850463125,6.001797199249268,0.22372891008853912,7.8765740394592285
1778599340898237448,5.861237448000001,6.030511379241943,0.20039889216423035,7.858627796173096
1778599340909011771,5.872011771,6.043671607971191,0.1902294009923935,7.864011764526367
1778599340919786198,5.882786198000001,5.998208045959473,0.20458634197711945,7.8765740394592285
1778599340930560521,5.893560521,5.943173408508301,0.20937198400497437,7.88076114654541
1778599340941334896,5.904334896,5.941378593444824,0.2189432680606842,7.920841217041016
1778599340952109271,5.915109271,5.904289722442627,0.23988047242164612,7.903493404388428
1778599340962883646,5.925883646,5.8713884353637695,0.21415762603282928,7.907082557678223
1778599340973658021,5.936658021,5.843871116638184,0.22911277413368225,7.890930652618408
1778599340984432344,5.947432344,5.828317642211914,0.23688943684101105,7.8664045333862305
1778599340995206771,5.958206771,5.835496425628662,0.22911277413368225,7.869993686676025
1778599341005981094,5.968981094,5.867799282073975,0.22911277413368225,7.869993686676025
1778599341016755417,5.979755417000001,5.866004943847656,0.2189432680606842,7.849654674530029
1778599341027529792,5.990529792,5.904888153076172,0.21415762603282928,7.8765740394592285
1778599341038304167,6.001304167000001,5.892923831939697,0.2835494875907898,7.8526458740234375
1778599341049078542,6.012078542,5.9509501457214355,0.22372891008853912,7.82692289352417
1778599341059852917,6.022852917000001,5.9509501457214355,0.22372891008853912,7.82692289352417
1778599341070627292,6.033627292,5.877370834350586,0.2189432680606842,7.795217990875244
1778599341081401667,6.044401667000001,5.885745525360107,0.2147558331489563,7.816154956817627
1778599341092175990,6.05517599,5.907878875732422,0.24466611444950104,7.850851058959961
1778599341102950312,6.065950312,5.937789440155029,0.25304099917411804,7.882555961608887
1778599341113724740,6.07672474,5.937789440155029,0.25304099917411804,7.882555961608887
1778599341124499062,6.087499062,5.947360515594482,0.2560320198535919,7.871190071105957
1778599341135273437,6.0982734370000005,5.904888153076172,0.28594231605529785,7.919644832611084
1778599341146047812,6.109047812,5.889933109283447,0.27397820353507996,7.9591264724731445
1778599341156822187,6.1198221870000005,5.889933109283447,0.27397820353507996,7.9591264724731445
1778599341167596562,6.130596562,5.913861274719238,0.27397820353507996,7.923832416534424
1778599341178370937,6.1413709370000005,5.9922261238098145,0.2590230405330658,7.9142608642578125
1778599341189145312,6.152145312,5.971887111663818,0.26201409101486206,7.882555961608887
1778599341199919635,6.162919635000001,5.963512420654297,0.243469700217247,7.860422611236572
1778599341210694062,6.173694062,5.963512420654297,0.243469700217247,7.860422611236572
1778599341221468385,6.184468385000001,5.998806476593018,0.2476571500301361,7.8664045333862305
1778599341232242708,6.195242708,5.998806476593018,0.2476571500301361,7.8664045333862305
1778599341243017083,6.206017083000001,6.006583213806152,0.25304099917411804,7.885547161102295
1778599341253791458,6.216791458,6.0879387855529785,0.2667997181415558,7.887939929962158
1778599341264565833,6.227565833000001,6.059225082397461,0.25004997849464417,7.892725467681885
1778599341275340208,6.238340208,5.946164131164551,0.28115665912628174,7.886145114898682
1778599341286114583,6.249114583000001,5.8995041847229,0.29790642857551575,7.886145114898682
1778599341296888958,6.259888958,5.8821563720703125,0.2715853750705719,7.834699630737305
1778599341307663281,6.270663281,5.934798240661621,0.2925225794315338,7.82692289352417
1778599341318437708,6.281437708,6.005386829376221,0.2667997181415558,7.847261905670166
1778599341329212031,6.292212031,5.9814581871032715,0.2721835672855377,7.857431411743164
1778599341339986354,6.302986354000001,5.91924524307251,0.29431718587875366,7.835297584533691
1778599341350760729,6.313760729,5.931209087371826,0.267397940158844,7.841279983520508
1778599341361535104,6.324535104000001,5.928217887878418,0.26560330390930176,7.829914093017578
1778599341372309479,6.335309479,5.876173973083496,0.26201409101486206,7.859225749969482
1778599341383083854,6.346083854000001,5.915655612945557,0.2548356056213379,7.88913631439209
1778599341393858229,6.356858229,5.97308349609375,0.25304099917411804,7.862216949462891
1778599341404632604,6.367632604000001,5.9300127029418945,0.25304099917411804,7.857431411743164
1778599341415406979,6.378406979,5.8821563720703125,0.2835494875907898,7.833503246307373
1778599341426181354,6.389181354000001,5.913861274719238,0.29730820655822754,7.785646915435791
1778599341436955729,6.399955729,5.976672649383545,0.2512463629245758,7.850851058959961
1778599341447730104,6.410730104000001,5.976672649383545,0.2512463629245758,7.850851058959961
1778599341458504427,6.421504427,5.914459228515625,0.2667997181415558,7.849056243896484
1778599341469278854,6.432278854000001,5.938387393951416,0.2638086974620819,7.861618995666504
1778599341480053177,6.443053177,5.8995041847229,0.2787638306617737,7.835297584533691
1778599341490827604,6.453827604000001,5.859424591064453,0.31046873331069946,7.852047443389893
1778599341501601927,6.464601927,5.836094379425049,0.3355933725833893,7.87777042388916
1778599341512376354,6.475376354000001,5.880361557006836,0.3517449200153351,7.857431411743164
1778599341523150677,6.486150677,5.946164131164551,0.3517449200153351,7.847859859466553
1778599341533925104,6.496925104000001,6.013163089752197,0.33738797903060913,7.895716667175293
1778599341544699427,6.507699427,5.955735683441162,0.3852444589138031,7.898707389831543
1778599341555473750,6.51847375,5.955137252807617,0.40319061279296875,7.892725467681885
1778599341566248177,6.529248177,6.0197434425354,0.3696911036968231,7.947760581970215
1778599341577022604,6.540022604000001,5.941378593444824,0.4265206456184387,7.893921852111816
1778599341587796927,6.550796927,5.971887111663818,0.43489551544189453,7.847859859466553
1778599341598571354,6.561571354000001,6.081358909606934,0.37866419553756714,7.859225749969482
1778599341609345677,6.572345677,6.137589931488037,0.4007977843284607,7.830512046813965
1778599341620120104,6.583120104000001,6.141777515411377,0.41874396800994873,7.801199913024902
1778599341630894427,6.593894427,6.007779598236084,0.4253242313861847,7.88076114654541
1778599341641668854,6.604668854000001,6.007779598236084,0.4253242313861847,7.88076114654541
1778599341652443229,6.615443229,6.000002861022949,0.38225340843200684,7.869993686676025
1778599341663217604,6.626217604000001,6.024528980255127,0.43190449476242065,7.8287177085876465
1778599341673991979,6.636991979,6.105885028839111,0.3696911036968231,7.849056243896484
1778599341684766354,6.647766354000001,6.065207004547119,0.32602208852767944,7.858627796173096
1778599341695540729,6.658540729,5.9886369705200195,0.4013960063457489,7.819146156311035
1778599341706315104,6.669315104000001,5.9886369705200195,0.4013960063457489,7.819146156311035
1778599341717089479,6.680089479,5.982655048370361,0.33918261528015137,7.813762187957764
1778599341727863854,6.690863854000001,5.979065418243408,0.30568310618400574,7.867002487182617
1778599341738638229,6.701638229,5.9539408683776855,0.28175488114356995,7.820940971374512
1778599341749412604,6.712412604000001,5.947958946228027,0.25423741340637207,7.786843299865723
1778599341760186979,6.723186979,5.943173408508301,0.25244277715682983,7.843074321746826
1778599341770961354,6.733961354000001,5.9264235496521,0.27397820353507996,7.862216949462891
1778599341781735677,6.744735677,5.913861274719238,0.3068794906139374,7.8903326988220215
1778599341792510208,6.7555102080000005,5.9300127029418945,0.28594231605529785,7.920841217041016
1778599341803284583,6.766284583,5.907878875732422,0.27337998151779175,7.906484127044678
1778599341814058958,6.7770589580000005,5.907878875732422,0.27337998151779175,7.906484127044678
1778599341824833333,6.787833333,5.854638576507568,0.25722843408584595,7.898707389831543
1778599341835607708,6.7986077080000005,5.780461311340332,0.27038896083831787,7.860422611236572
1778599341846382083,6.809382083,5.837889194488525,0.27696922421455383,7.859225749969482
1778599341857156458,6.8201564580000005,5.928217887878418,0.26560330390930176,7.8556365966796875
1778599341867930833,6.830930833,5.969494342803955,0.25244277715682983,7.823931694030762
1778599341878705208,6.8417052080000005,5.92223596572876,0.2548356056213379,7.839485168457031
1778599341889479635,6.852479635000001,5.8474602699279785,0.2955136001110077,7.793423175811768
1778599341900254062,6.863254062,5.840879917144775,0.29312077164649963,7.825128078460693
1778599341911028437,6.874028437000001,5.740381717681885,0.26081767678260803,7.871190071105957
1778599341921802812,6.884802812,5.697310924530029,0.26560330390930176,7.890930652618408
1778599341932577187,6.895577187000001,5.722435474395752,0.28175488114356995,7.871190071105957
1778599341943351562,6.906351562,5.880959987640381,0.28594231605529785,7.911868095397949
1778599341954125937,6.917125937000001,5.965306758880615,0.2273181527853012,7.868797302246094
1778599341964900312,6.927900312,5.80917501449585,0.2356930375099182,7.817351341247559
1778599341975674740,6.938674740000001,5.829514026641846,0.259621262550354,7.794619560241699
1778599341986449062,6.949449062,5.80917501449585,0.20997019112110138,7.841279983520508
1778599341997223490,6.960223490000001,5.831308841705322,0.20817556977272034,7.887939929962158
1778599342007997917,6.970997917,5.9647088050842285,0.22432711720466614,7.865208148956299
1778599342018772292,6.9817722920000005,6.078367710113525,0.14117653667926788,7.8903326988220215
1778599342029546667,6.992546667,5.947958946228027,0.16151553392410278,7.926225185394287
1778599342040321042,7.0033210420000005,5.914459228515625,0.2147558331489563,7.94297456741333
1778599342051095417,7.014095417,5.853442192077637,0.17168502509593964,7.884350776672363
1778599342061869844,7.024869844,5.738586902618408,0.1621137410402298,7.93998384475708
1778599342072644271,7.035644271000001,5.738586902618408,0.1621137410402298,7.93998384475708
1778599342083418594,7.046418594,5.802595138549805,0.14297115802764893,8.01236629486084
1778599342094193021,7.057193021000001,5.879165172576904,0.13040883839130402,8.077570915222168
1778599342104967396,7.067967396,5.892923831939697,0.129810631275177,7.996214866638184
1778599342115741771,7.078741771000001,5.874379634857178,0.1010967567563057,7.999206066131592
1778599342126516146,7.089516146,5.810371398925781,0.11246266216039658,7.975277900695801
1778599342137290625,7.100290625,5.796014785766602,0.13160525262355804,7.945367813110352
1778599342148064948,7.111064948,5.893522262573242,0.1698904037475586,7.981858253479004
1778599342158839375,7.121839375,5.9336018562316895,0.19980068504810333,7.932207107543945
1778599342169613750,7.132613750000001,5.912066459655762,0.1459621787071228,7.868198871612549
1778599342180388125,7.143388125,5.828317642211914,0.11246266216039658,7.887341499328613
1778599342191162500,7.154162500000001,5.818148136138916,0.1136590763926506,7.862216949462891
1778599342201936875,7.164936875,5.806782245635986,0.09631111472845078,7.871788501739502
1778599342212711302,7.175711302000001,5.788238048553467,0.07058826833963394,7.916055679321289
1778599342223485729,7.186485729,5.756533145904541,0.07118647545576096,7.919046401977539
1778599342234260104,7.197260104000001,5.909673690795898,0.06759724020957947,7.881359577178955
1778599342245034479,7.208034479,5.861817359924316,0.031106693670153618,7.859225749969482
1778599342255808854,7.218808854000001,5.676373481750488,0.08853443711996078,7.871788501739502
1778599342266583229,7.229583229,5.681159019470215,0.10588239878416061,7.853842258453369
1778599342277357656,7.2403576560000005,5.80199670791626,0.08733802288770676,7.907082557678223
1778599342288132083,7.251132083000001,5.80199670791626,0.08733802288770676,7.907082557678223
1778599342298906458,7.261906458,6.001797199249268,0.0933200865983963,7.9381890296936035
1778599342309680833,7.272680833000001,6.001797199249268,0.0933200865983963,7.9381890296936035
1778599342320455208,7.283455208,5.785246849060059,0.14297115802764893,7.952546119689941
1778599342331229583,7.294229583000001,5.6656060218811035,0.1585244983434677,7.969295978546143
1778599342342004010,7.30500401,5.6656060218811035,0.1585244983434677,7.969295978546143
1778599342352778437,7.3157784370000005,5.738586902618408,0.1333998590707779,8.086544036865234
1778599342363552812,7.326552812,6.119643688201904,0.08015955984592438,7.926225185394287
1778599342374327187,7.3373271870000005,6.119643688201904,0.08015955984592438,7.926225185394287
1778599342385101562,7.348101562,6.075376510620117,0.09810572862625122,7.943572998046875
1778599342395875937,7.3588759370000005,6.030511379241943,0.06640082597732544,7.906484127044678
1778599342406650365,7.369650365,5.914459228515625,0.09511470049619675,7.9381890296936035
1778599342417424792,7.380424792,5.936593055725098,0.15732808411121368,7.883154392242432
1778599342428199167,7.391199167000001,6.078367710113525,0.09990034252405167,7.823931694030762
1778599342438973542,7.401973542,6.223731517791748,0.09032905846834183,7.863413333892822
1778599342449747917,7.412747917000001,6.223731517791748,0.09032905846834183,7.863413333892822
1778599342460522292,7.423522292,5.909075736999512,0.10408778488636017,7.840083599090576
1778599342471296719,7.434296719000001,5.819942951202393,0.07118647545576096,7.941778182983398
1778599342482071146,7.445071146,5.833103179931641,0.05623133108019829,7.8556365966796875
1778599342492845521,7.4558455210000005,5.833103179931641,0.05623133108019829,7.8556365966796875
1778599342503619896,7.466619896,5.879165172576904,0.016749758273363113,7.959724426269531
1778599342514394271,7.4773942710000005,5.8995041847229,0.039481572806835175,8.050651550292969
1778599342525168646,7.488168646,5.897709846496582,0.01375873014330864,7.9860453605651855
1778599342535943073,7.498943073,5.985645771026611,0.01196411345154047,8.057829856872559
1778599342546717500,7.509717500000001,6.075376510620117,-0.014955141581594944,8.041080474853516
1778599342557491875,7.520491875,5.971288681030273,-0.039481572806835175,8.02193832397461
1778599342568266250,7.531266250000001,5.770291805267334,-0.018544375896453857,7.946564197540283
1778599342579040625,7.542040625,5.6823554039001465,0.003589233849197626,7.976474285125732
1778599342589815000,7.552815000000001,5.650650501251221,-0.029910283163189888,7.9381890296936035
1778599342600589427,7.563589427,6.13699197769165,-0.11605189740657806,8.059624671936035
1778599342611363854,7.5743638540000005,6.13699197769165,-0.11605189740657806,8.059624671936035
1778599342622138229,7.585138229000001,6.202794551849365,-0.21176479756832123,7.983652591705322
1778599342632912604,7.5959126040000005,5.962316036224365,-0.19381862878799438,7.934001445770264
1778599342643686979,7.606686979000001,5.789434432983398,-0.16390834748744965,7.911269664764404
1778599342654461354,7.6174613540000005,5.722435474395752,-0.1543370634317398,7.95134973526001
1778599342665235781,7.628235781000001,5.821737289428711,-0.1333998590707779,7.932207107543945
1778599342676010208,7.639010208,5.805585861206055,-0.17766708135604858,7.908278942108154
1778599342686784583,7.649784583000001,5.758925914764404,-0.20937198400497437,7.904689788818359
1778599342697558958,7.660558958,5.807380676269531,-0.26560330390930176,7.967501163482666
1778599342708333385,7.6713333850000005,5.780461311340332,-0.3355933725833893,7.919046401977539
1778599342719107708,7.682107708,5.694319725036621,-0.33080771565437317,7.8424763679504395
1778599342729882135,7.6928821350000005,5.571089267730713,-0.268594354391098,7.832904815673828
1778599342740656562,7.703656562000001,5.694319725036621,-0.3116651475429535,7.805985450744629
1778599342751430937,7.714430937,5.808577060699463,-0.38225340843200684,7.806583881378174
1778599342762205312,7.725205312000001,5.6859450340271,-0.3194418251514435,7.694121360778809
1778599342772979740,7.73597974,5.563312530517578,-0.373878538608551,7.585845947265625
1778599342783754062,7.746754062000001,5.6656060218811035,-0.4169493317604065,7.675576686859131
1778599342794528542,7.757528542,5.653641700744629,-0.519242525100708,7.810771465301514
1778599342805302917,7.768302917000001,5.569892883300781,-0.5258227586746216,7.872984886169434
1778599342816077292,7.779077292,5.67756986618042,-0.4941178858280182,7.844270706176758
1778599342826851667,7.789851667000001,6.123233318328857,-0.6418746709823608,7.857431411743164
1778599342837626042,7.800626042,6.028716564178467,-0.7106683254241943,7.904689788818359
1778599342848400417,7.811400417000001,6.028716564178467,-0.7106683254241943,7.904689788818359
1778599342859174844,7.822174844,5.61116886138916,-0.5874379873275757,8.01236629486084
1778599342869949271,7.832949271,5.502893924713135,-0.50129634141922,7.8664045333862305
1778599342880723646,7.843723646000001,5.641677379608154,-0.6520441770553589,7.978867053985596
1778599342891498021,7.854498021,5.641677379608154,-0.6520441770553589,7.978867053985596
1778599342902272396,7.865272396000001,6.020939826965332,-0.6580262184143066,8.090133666992188
1778599342913046771,7.876046771,6.046064376831055,-0.6753742098808289,8.062616348266602
1778599342923821198,7.886821198000001,5.892923831939697,-0.6406782865524292,8.041080474853516
1778599342934595625,7.897595625,5.892923831939697,-0.6406782865524292,8.041080474853516
1778599342945370000,7.908370000000001,5.802595138549805,-0.7058826684951782,8.050651550292969
1778599342956144375,7.919144375,5.539384365081787,-0.6424728631973267,8.033902168273926
1778599342966918750,7.929918750000001,5.571089267730713,-0.6592226624488831,8.133204460144043
1778599342977693229,7.940693229000001,5.571089267730713,-0.6592226624488831,8.133204460144043
1778599342988467552,7.951467552,5.880361557006836,-0.6418746709823608,7.995616912841797
1778599342999241979,7.962241979000001,5.902495384216309,-0.7286145091056824,7.9657063484191895
1778599343010016354,7.973016354,5.741578102111816,-0.7621139883995056,7.992625713348389
1778599343020790729,7.983790729000001,5.907878875732422,-0.6897311210632324,7.93579626083374
1778599343031565104,7.994565104,5.986244201660156,-0.7812566161155701,7.93998384475708
1778599343042339479,8.005339479,5.696712493896484,-0.7908278703689575,7.99083137512207
1778599343053113906,8.016113906000001,5.4418768882751465,-0.7328019142150879,8.024331092834473
1778599343063888333,8.026888333,6.046064376831055,-0.833898663520813,7.9244303703308105
1778599343074662708,8.037662708000001,6.046064376831055,-0.833898663520813,7.9244303703308105
1778599343085437083,8.048437083000001,5.979663848876953,-0.9852447509765625,7.963912010192871
1778599343096211458,8.059211458,5.602794170379639,-0.9607182741165161,7.8795647621154785
1778599343106985833,8.069985833,5.709873199462891,-0.9930213689804077,7.930412292480469
1778599343117760260,8.08076026,5.709873199462891,-0.9930213689804077,7.930412292480469
1778599343128534687,8.091534687000001,5.835496425628662,-1.0917253494262695,7.887341499328613
1778599343139309062,8.102309062,5.606383323669434,-1.1353943347930908,7.94297456741333
1778599343150083333,8.113083333,5.606383323669434,-1.1353943347930908,7.94297456741333
1778599343160857812,8.123857812,4.887938499450684,-1.0187442302703857,7.9351983070373535
1778599343171632187,8.134632187000001,6.223133563995361,-1.29810631275177,7.973483085632324
1778599343182406562,8.145406562,6.014957904815674,-0.7836494445800781,8.758329391479492
1778599343193181042,8.156181042,5.6685967445373535,-1.0247262716293335,7.997411251068115
1778599343203955365,8.166955365,5.800800323486328,-0.9128618240356445,7.809575080871582
1778599343214729792,8.177729792000001,5.904888153076172,-0.9224331378936768,7.911269664764404
1778599343225504167,8.188504167000001,5.639883041381836,-1.0372886657714844,7.887341499328613
1778599343236278542,8.199278542,5.639883041381836,-1.0372886657714844,7.887341499328613
1778599343247052917,8.210052917,5.854638576507568,-1.0875378847122192,7.800003528594971
1778599343257827292,8.220827292000001,6.013163089752197,-1.0187442302703857,7.840083599090576
1778599343268601719,8.231601719,5.947360515594482,-1.0582258701324463,7.902296543121338
1778599343279376146,8.242376146,5.758925914764404,-1.1377872228622437,7.950153350830078
1778599343290150521,8.253150521,5.68893575668335,-1.1156535148620605,7.883154392242432
1778599343300924896,8.263924896,5.687739372253418,-1.1174482107162476,7.816154956817627
1778599343311699271,8.274699271000001,5.602794170379639,-1.1670992374420166,7.81555700302124
1778599343322473646,8.285473646,5.562714576721191,-1.0857433080673218,7.841279983520508
1778599343333248073,8.296248073000001,5.718247890472412,-1.1335997581481934,7.813762187957764
1778599343344022500,8.3070225,5.718247890472412,-1.1335997581481934,7.813762187957764
1778599343354796823,8.317796823,5.743372440338135,-1.1282159090042114,7.767700672149658
1778599343365571250,8.328571250000001,5.916851997375488,-1.2035897970199585,7.883154392242432
1778599343376345625,8.339345625,5.681159019470215,-1.0618150234222412,7.9142608642578125
1778599343387120000,8.35012,5.681159019470215,-1.0618150234222412,7.9142608642578125
1778599343397894427,8.360894427,5.617749214172363,-1.0713863372802734,7.99800968170166
1778599343408668854,8.371668854000001,5.424529075622559,-1.0378868579864502,8.090133666992188
1778599343419443177,8.382443177,5.3353962898254395,-1.0492527484893799,8.141578674316406
1778599343430217604,8.393217604,5.408377170562744,-1.058824062347412,8.088936805725098
1778599343440991979,8.403991979,5.621936798095703,-1.1066805124282837,8.063214302062988
1778599343451766354,8.414766354000001,5.547161102294922,-1.181456208229065,8.074580192565918
1778599343462540781,8.425540781,5.577669620513916,-1.1288141012191772,7.93998384475708
1778599343473315208,8.436315208,5.5005011558532715,-0.9990034699440002,8.106285095214844
1778599343484089583,8.447089583,5.603392601013184,-1.1126625537872314,7.941778182983398
1778599343494863958,8.457863958,5.585446357727051,-1.0390832424163818,7.932207107543945
1778599343505638333,8.468638333000001,5.709873199462891,-1.1066805124282837,8.047062873840332
1778599343516412708,8.479412708,5.569892883300781,-1.1491531133651733,8.169694900512695
1778599343527187187,8.490187187,5.526223659515381,-1.089930772781372,8.196614265441895
1778599343537961562,8.500961562,5.582455158233643,-1.0791629552841187,8.150551795959473
1778599343548735937,8.511735937000001,5.699105262756348,-1.1252248287200928,8.073982238769531
1778599343559510312,8.522510312,5.510072231292725,-1.1497513055801392,7.957930088043213
1778599343570284740,8.533284740000001,5.43709135055542,-1.1539387702941895,7.976474285125732
1778599343581059167,8.544059167,5.3318071365356445,-1.1252248287200928,8.009973526000977
1778599343591833542,8.554833542,5.3970112800598145,-1.119242787361145,7.977072715759277
1778599343602607917,8.565607917000001,5.639284610748291,-1.168893814086914,8.044071197509766
1778599343613382344,8.576382344,5.813961029052734,-1.1318050622940063,7.984848976135254
1778599343624156771,8.587156771,5.813961029052734,-1.1318050622940063,7.984848976135254
1778599343634931146,8.597931146,5.665007591247559,-1.2765709161758423,8.084151268005371
1778599343645705521,8.608705521000001,5.665007591247559,-1.2765709161758423,8.084151268005371
1778599343656479948,8.619479948,5.651248931884766,-1.3184453248977661,8.172685623168945
1778599343667254375,8.630254375,5.581857204437256,-1.2628121376037598,8.172685623168945
1778599343678028750,8.64102875,5.472385406494141,-1.2448660135269165,8.034500122070312
1778599343688803125,8.651803125,5.309673309326172,-1.287936806678772,8.050651550292969
1778599343699577500,8.662577500000001,5.352146148681641,-1.311864972114563,8.142775535583496
1778599343710351979,8.673351979000001,5.454439163208008,-1.399801254272461,8.109275817871094
1778599343721126354,8.684126354,5.622535228729248,-1.415354609489441,8.021339416503906
1778599343731900729,8.694900729,5.770291805267334,-1.44945228099823,8.063214302062988
1778599343742675104,8.705675104,5.693721294403076,-1.456032633781433,8.093722343444824
1778599343753449583,8.716449583000001,5.558526992797852,-1.5337992906570435,8.118846893310547
1778599343764223958,8.727223958,5.537590026855469,-1.578664779663086,8.144570350646973
1778599343774998333,8.737998333,5.484947681427002,-1.555932879447937,8.151150703430176
1778599343785772760,8.748772760000001,5.410171985626221,-1.5463616847991943,8.112865447998047
1778599343796547187,8.759547187,5.444868087768555,-1.511067509651184,8.15234661102295
1778599343807321562,8.770321562000001,5.5244293212890625,-1.573280930519104,8.21276569366455
1778599343818095937,8.781095937,5.60099983215332,-1.6342978477478027,8.242077827453613
1778599343828870365,8.791870365000001,5.601597785949707,-1.6761722564697266,8.308478355407715
1778599343839644792,8.802644792,5.550750255584717,-1.604387640953064,8.26121997833252
1778599343850419115,8.813419115,5.488536834716797,-1.618146300315857,8.11525821685791
1778599343861193542,8.824193542,5.560321807861328,-1.6151553392410278,8.080561637878418
1778599343871967969,8.834967969000001,5.61236572265625,-1.5451651811599731,8.072785377502441
1778599343882742396,8.845742396,5.569892883300781,-1.490728497505188,8.075776100158691
1778599343893516771,8.856516771,5.61116886138916,-1.4608181715011597,8.14098072052002
1778599343904291146,8.867291146000001,5.754140377044678,-1.4811571836471558,8.136195182800293
1778599343915065573,8.878065573,5.872584819793701,-1.5738791227340698,8.11107063293457
1778599343925840000,8.88884,5.80199670791626,-1.5002998113632202,8.115856170654297
1778599343936614375,8.899614375,5.621936798095703,-1.3950155973434448,8.10807991027832
1778599343947388750,8.910388750000001,5.5758748054504395,-1.3597214221954346,8.12961483001709
1778599343958163177,8.921163177,5.781657695770264,-1.3836497068405151,8.14397144317627
1778599343968937604,8.931937604,5.781657695770264,-1.3836497068405151,8.14397144317627
1778599343979711979,8.942711979,5.78644323348999,-1.3363914489746094,8.200202941894531
1778599343990486354,8.953486354,5.669793128967285,-1.357926845550537,8.178069114685059
1778599344001260781,8.964260781,5.474180221557617,-1.3674981594085693,8.15234661102295
1778599344012035208,8.975035208000001,5.456233978271484,-1.3423734903335571,8.14098072052002
1778599344022809583,8.985809583,5.409573554992676,-1.3854442834854126,8.174480438232422
1778599344033583958,8.996583958,5.325226783752441,-1.4075778722763062,8.178069114685059
1778599344044358437,9.007358437,5.574678421020508,-1.3872389793395996,8.073982238769531
1778599344055132812,9.018132812000001,5.502893924713135,-1.4105689525604248,8.14397144317627
1778599344065907187,9.028907187,5.502893924713135,-1.4105689525604248,8.14397144317627
1778599344076681562,9.039681562,5.431109428405762,-1.3818551301956177,8.174480438232422
1778599344087456042,9.050456042,5.542375564575195,-1.3728820085525513,8.134998321533203
1778599344098230417,9.061230417,5.209175109863281,-1.399801254272461,8.236693382263184
1778599344109004792,9.072004792000001,5.209175109863281,-1.399801254272461,8.236693382263184
1778599344119779271,9.082779271,5.336592674255371,-1.3453645706176758,8.276773452758789
1778599344130553646,9.093553646,5.349154949188232,-1.3806586265563965,8.166703224182129
1778599344141328021,9.104328021,5.349154949188232,-1.3806586265563965,8.166703224182129
1778599344152102396,9.115102396000001,5.471786975860596,-1.4321043491363525,8.191828727722168
1778599344162876875,9.125876875000001,5.4143595695495605,-1.4398809671401978,8.1553373336792
1778599344173651250,9.13665125,5.400002479553223,-1.3818551301956177,8.191828727722168
1778599344184425625,9.147425625,5.498108386993408,-1.3483555316925049,8.148757934570312
1778599344195200052,9.158200052,5.558526992797852,-1.3645070791244507,8.09970474243164
1778599344205974479,9.168974479000001,5.6590256690979,-1.3746765851974487,8.094919204711914
1778599344216748906,9.179748906,5.682953834533691,-1.4141582250595093,8.118846893310547
1778599344227523229,9.190523229,5.5345988273620605,-1.3854442834854126,8.11107063293457
1778599344238297656,9.201297656000001,4.8568315505981445,-1.3076776266098022,7.790432453155518
1778599344249072083,9.212072083,4.8568315505981445,-1.3076776266098022,7.790432453155518
1778599344259846458,9.222846458000001,6.132206439971924,-1.2993026971817017,8.361719131469727
1778599344270620833,9.233620833,5.371288776397705,-1.2305090427398682,8.318049430847168
1778599344281395312,9.244395312,5.154737949371338,-1.1491531133651733,7.806583881378174
1778599344292169687,9.255169687,5.3593244552612305,-1.058824062347412,8.034500122070312
1778599344302944062,9.265944062,5.388038158416748,-0.9002995491027832,8.209774017333984
1778599344313718542,9.276718542000001,5.092525005340576,-0.9529415965080261,8.23549747467041
1778599344324492917,9.287492917,5.220541000366211,-0.9433703422546387,8.291130065917969
1778599344335267292,9.298267292,5.525027275085449,-0.966102123260498,8.211568832397461
1778599344346041719,9.309041719000001,5.681159019470215,-0.9559326171875,8.069195747375488
1778599344356816146,9.319816146,5.7750773429870605,-0.9655039310455322,8.148757934570312
1778599344367590521,9.330590521000001,5.464010715484619,-0.9535398483276367,8.110472679138184
1778599344378364896,9.341364896,5.358726501464844,-0.9128618240356445,8.213363647460938
1778599344389139323,9.352139323000001,5.468796253204346,-0.9308080077171326,8.21276569366455
1778599344399913750,9.36291375,5.541179180145264,-0.9864411354064941,8.120641708374023
1778599344410688125,9.373688125000001,5.62373161315918,-0.9966106414794922,8.033902168273926
1778599344421462500,9.3844625,5.674578666687012,-0.9565308690071106,8.130212783813477
1778599344432236979,9.395236979,5.74696159362793,-0.9290133714675903,8.081758499145508
1778599344443011354,9.406011354,5.711667537689209,-1.0139585733413696,8.12961483001709
1778599344453785781,9.416785781,5.532804012298584,-0.9583254456520081,8.109275817871094
1778599344464560208,9.427560208000001,5.532804012298584,-0.9583254456520081,8.109275817871094
1778599344475334583,9.438334583000001,5.4526448249816895,-0.9056833982467651,8.050651550292969
1778599344486108958,9.449108958,5.461019515991211,-0.8697910308837891,7.949554920196533
1778599344496883385,9.459883385000001,5.641677379608154,-0.8973084688186646,8.00100040435791
1778599344507657812,9.470657812,5.641677379608154,-0.8973084688186646,8.00100040435791
1778599344518432187,9.481432187000001,5.498108386993408,-0.9200403094291687,8.093124389648438
1778599344529206562,9.492206562,5.3970112800598145,-0.8865407705307007,8.109275817871094
1778599344539981042,9.502981042,5.585446357727051,-0.8267202377319336,8.110472679138184
1778599344550755417,9.513755417,5.657230854034424,-0.7651050686836243,7.976474285125732
1778599344561529792,9.524529792000001,5.850451469421387,-0.7908278703689575,7.898707389831543
1778599344572304271,9.535304271000001,6.1088762283325195,-0.8476574420928955,7.926225185394287
1778599344583078646,9.546078646,6.022136211395264,-0.8512466549873352,7.960920810699463
1778599344593853021,9.556853021,5.756533145904541,-0.8512466549873352,7.969295978546143
1778599344604627448,9.567627448000001,5.615954875946045,-0.8590233325958252,8.213363647460938
1778599344615401875,9.578401875,5.559723377227783,-0.7597211599349976,8.195417404174805
1778599344626176250,9.589176250000001,5.408377170562744,-0.7549355626106262,8.106285095214844
1778599344636950625,9.599950625,5.539384365081787,-0.755533754825592,8.184051513671875
1778599344647725104,9.610725104,5.722435474395752,-0.778863787651062,8.193622589111328
1778599344658499479,9.621499479,5.851647853851318,-0.8620143532752991,8.191828727722168
1778599344669273906,9.632273906,6.004788398742676,-0.7908278703689575,8.203194618225098
1778599344680048333,9.643048333000001,5.86421012878418,-0.7549355626106262,8.104490280151367
1778599344690822708,9.653822708,5.628517150878906,-0.7058826684951782,8.120641708374023
1778599344701597083,9.664597083,5.539384365081787,-0.6867401003837585,8.134998321533203
1778599344712371562,9.675371562,5.569892883300781,-0.6801598072052002,8.09970474243164
1778599344723145937,9.686145937000001,5.700301647186279,-0.6664010882377625,8.070990562438965
1778599344733920365,9.696920365,5.709873199462891,-0.6771687865257263,8.153543472290039
1778599344744694792,9.707694792,5.6859450340271,-0.6454638838768005,8.103293418884277
1778599344755469167,9.718469167,5.671587944030762,-0.7663014531135559,8.100900650024414
1778599344766243542,9.729243542,5.617151260375977,-0.6610172390937805,8.070990562438965
1778599344777018021,9.740018021000001,5.531607627868652,-0.6215356588363647,8.083553314208984
1778599344787792396,9.750792396000001,5.5005011558532715,-0.5706881880760193,8.121838569641113
1778599344798566875,9.761566875,5.663212776184082,-0.5443671345710754,8.213363647460938
1778599344809341250,9.77234125,5.7062835693359375,-0.6406782865524292,8.196614265441895
1778599344820115677,9.783115677000001,5.663811206817627,-0.714257538318634,8.249256134033203
1778599344830890104,9.793890104,5.606383323669434,-0.7549355626106262,8.297710418701172
1778599344841664479,9.804664479000001,5.526223659515381,-0.6951149702072144,8.25105094909668
1778599344852438958,9.815438958000001,5.246861934661865,-0.6616154313087463,8.185846328735352
1778599344863213333,9.826213333,5.405386447906494,-0.7094719409942627,8.259425163269043
1778599344873987708,9.836987708,5.405386447906494,-0.7094719409942627,8.259425163269043
1778599344884762187,9.847762187,5.464010715484619,-0.7028916478157043,8.287541389465332
1778599344895536562,9.858536562000001,5.414957523345947,-0.6628118753433228,8.166703224182129
1778599344906311042,9.869311042000001,5.3904314041137695,-0.6801598072052002,8.130212783813477
1778599344917085417,9.880085417,5.3904314041137695,-0.6801598072052002,8.130212783813477
1778599344927859844,9.890859844000001,5.337789058685303,-0.7328019142150879,8.059624671936035
1778599344938634271,9.901634271,5.365306377410889,-0.7184450030326843,8.01057243347168
1778599344949408698,9.912408698,5.376074314117432,-0.7902296781539917,8.163712501525879
1778599344960183125,9.923183125000001,5.303092956542969,-0.7728816866874695,8.2157564163208
1778599344970957500,9.9339575,5.1804609298706055,-0.7489534616470337,8.220541954040527
1778599344981731979,9.944731979,5.161318302154541,-0.6472585201263428,8.22293472290039
1778599344992506354,9.955506354,5.1804609298706055,-0.7022934556007385,8.23250675201416
1778599345003280833,9.966280833,5.191826820373535,-0.6789634227752686,8.218149185180664
1778599345014055208,9.977055208000001,5.323431968688965,-0.6209374666213989,8.251648902893066
1778599345024829687,9.987829687000001,5.3557353019714355,-0.6693921089172363,8.271987915039062
1778599345035604062,9.998604062,5.136792182922363,-0.6598208546638489,8.388039588928223
1778599345046378542,10.009378542,5.136792182922363,-0.6598208546638489,8.388039588928223
1778599345057152917,10.020152917,5.07936429977417,-0.6897311210632324,8.26540756225586
1778599345067927396,10.030927396000001,4.910670280456543,-0.6879364848136902,8.251648902893066
1778599345078701771,10.041701771000001,4.880760192871094,-0.6424728631973267,8.299505233764648
1778599345089476250,10.05247625,5.011168956756592,-0.6610172390937805,8.321041107177734
1778599345100250625,10.063250625,5.2151570320129395,-0.7040880918502808,8.33300495147705
1778599345111025104,10.074025104,5.358726501464844,-0.6783652305603027,8.292326927185059
1778599345121799479,10.084799479,5.4179487228393555,-0.6562315821647644,8.210970878601074
1778599345132573958,10.095573958000001,5.336592674255371,-0.7022934556007385,8.191828727722168
1778599345143348333,10.106348333000001,5.052444934844971,-0.7214360237121582,8.283353805541992
1778599345154122812,10.117122812,4.877170562744141,-0.7088736891746521,8.260622024536133
1778599345164897187,10.127897187,4.980660438537598,-0.6753742098808289,8.277970314025879
1778599345175671667,10.138671667,5.215754985809326,-0.7172485589981079,8.311469078063965
1778599345186446042,10.149446042000001,5.264808177947998,-0.7758727669715881,8.324629783630371
1778599345197220417,10.160220417000001,5.264808177947998,-0.7758727669715881,8.324629783630371
1778599345207994896,10.170994896,5.30129861831665,-0.6789634227752686,8.294121742248535
1778599345218769375,10.181769375,5.357530117034912,-0.6137589812278748,8.219346046447754
1778599345229543750,10.19254375,5.419743061065674,-0.5970092415809631,8.210970878601074
1778599345240318229,10.203318229,5.4514479637146,-0.5988038778305054,8.244470596313477
1778599345251092604,10.214092604000001,5.282754421234131,-0.544965386390686,8.254639625549316
1778599345261867083,10.224867083000001,5.30129861831665,-0.4893322288990021,8.270791053771973
1778599345272641458,10.235641458,5.301896572113037,-0.544965386390686,8.286344528198242
1778599345283415937,10.246415937,5.30129861831665,-0.5443671345710754,8.213363647460938
1778599345294190312,10.257190312,5.411368370056152,-0.5754738450050354,8.25404167175293
1778599345304964792,10.267964792,5.416752338409424,-0.5802595019340515,8.266005516052246
1778599345315739167,10.278739167000001,5.419145107269287,-0.4695914387702942,8.176275253295898
1778599345326513646,10.289513646000001,5.4897332191467285,-0.4893322288990021,8.191828727722168
1778599345337288073,10.300288073,5.244469165802002,-0.4713860750198364,8.09970474243164
1778599345348062500,10.3110625,5.212165832519531,-0.4055834412574768,8.118846893310547
1778599345358836927,10.321836927000001,5.202594757080078,-0.42831525206565857,8.096115112304688
1778599345369611354,10.332611354,5.154737949371338,-0.4331009089946747,8.01356315612793
1778599345380385833,10.343385833000001,5.2971110343933105,-0.3403790295124054,7.959724426269531
1778599345391160208,10.354160208000001,5.148158073425293,-0.4366901218891144,8.017151832580566
1778599345401934687,10.364934687,5.19960355758667,-0.3326023519039154,8.017151832580566
1778599345412709062,10.375709062,5.2731828689575195,-0.4091726839542389,8.080561637878418
1778599345423483542,10.386483542,5.5345988273620605,-0.48095735907554626,8.112865447998047
1778599345434257917,10.397257917000001,5.617151260375977,-0.43489551544189453,8.094919204711914
1778599345445032396,10.408032396000001,5.481956481933594,-0.4827519655227661,8.196614265441895
1778599345455806771,10.418806771,5.280959606170654,-0.4666004180908203,8.26839828491211
1778599345466581250,10.42958125,5.371288776397705,-0.42352959513664246,8.33300495147705
1778599345477355729,10.440355729,5.514857769012451,-0.43908295035362244,8.39282512664795
1778599345488130104,10.451130104,5.5387864112854,-0.4378865361213684,8.325826644897461
1778599345498904583,10.461904583,5.292325496673584,-0.4426721930503845,8.22293472290039
1778599345509678958,10.472678958000001,5.292325496673584,-0.4426721930503845,8.22293472290039
1778599345520453437,10.483453437000001,5.344967365264893,-0.49351966381073,8.26241683959961
1778599345531227865,10.494227865000001,5.330610752105713,-0.41096729040145874,8.295916557312012
1778599345542002292,10.505002292,5.493322372436523,-0.3481557071208954,8.383254051208496
1778599345552776771,10.515776771,5.68474817276001,-0.4217349886894226,8.423932075500488
1778599345563551146,10.526551146000001,5.717649936676025,-0.41096729040145874,8.373682975769043
1778599345574325625,10.537325625000001,5.512465000152588,-0.36729827523231506,8.297710418701172
1778599345585100000,10.5481,5.4867424964904785,-0.3595215976238251,8.242077827453613
1778599345595874479,10.558874479,5.67039155960083,-0.3930211067199707,8.271987915039062
1778599345606648958,10.569648958,5.592026710510254,-0.5018945336341858,8.271987915039062
1778599345617423333,10.580423333,5.370092391967773,-0.4223332107067108,8.243273735046387
1778599345628197812,10.591197812,5.389235019683838,-0.50129634141922,8.267202377319336
1778599345638972187,10.601972187000001,5.233103275299072,-0.4103690981864929,8.175078392028809
1778599345649746667,10.612746667000001,5.233103275299072,-0.4103690981864929,8.175078392028809
1778599345660521094,10.623521094,5.3318071365356445,-0.486939400434494,8.083553314208984
1778599345671295521,10.634295521,5.182255744934082,-0.4570291340351105,8.059624671936035
1778599345682070000,10.64507,5.170889854431152,-0.47796630859375,8.203792572021484
1778599345692844375,10.655844375000001,5.548955917358398,-0.50129634141922,8.257631301879883
1778599345703618854,10.666618854000001,5.725426197052002,-0.5162515044212341,8.184649467468262
1778599345714393229,10.677393229000002,5.808577060699463,-0.4504488706588745,8.088338851928711
1778599345725167708,10.688167708,5.808577060699463,-0.4504488706588745,8.088338851928711
1778599345735942187,10.698942187,5.678168296813965,-0.4827519655227661,8.144570350646973
1778599345746716562,10.709716562,5.711667537689209,-0.4486542344093323,8.115856170654297
1778599345757491042,10.720491042,5.711667537689209,-0.4486542344093323,8.115856170654297
1778599345768265417,10.731265417000001,5.639883041381836,-0.43609192967414856,8.104490280151367
1778599345779039896,10.742039896000001,5.498108386993408,-0.4570291340351105,8.161917686462402
1778599345789814323,10.752814323,5.391029357910156,-0.5030909776687622,8.22114086151123
1778599345800588750,10.76358875,5.353940486907959,-0.44446679949760437,8.166703224182129
1778599345811363229,10.774363229,5.325825214385986,-0.41994038224220276,8.163712501525879
1778599345822137604,10.785137604,5.325825214385986,-0.41994038224220276,8.163712501525879
1778599345832912083,10.795912083000001,5.416752338409424,-0.30508488416671753,8.225926399230957
1778599345843686562,10.806686562000001,5.566303730010986,-0.3439682424068451,8.367700576782227
1778599345854460937,10.817460937,5.491528034210205,-0.3242274820804596,8.459824562072754
1778599345865235417,10.828235417,5.347958564758301,-0.27337998151779175,8.557929992675781
1778599345876009792,10.839009792,5.112864017486572,-0.2512463629245758,8.536993026733398
1778599345886784271,10.849784271,5.139184951782227,-0.24646073579788208,8.47597599029541
1778599345897558698,10.860558698,5.237290382385254,-0.268594354391098,8.383852005004883
1778599345908333125,10.871333125000001,5.382654666900635,-0.23808585107326508,8.344968795776367
1778599345919107604,10.882107604000002,5.401797294616699,-0.21176479756832123,8.220541954040527
1778599345929881979,10.892881979,5.401797294616699,-0.21176479756832123,8.220541954040527
1778599345940656458,10.903656458,5.221737384796143,-0.2189432680606842,8.196614265441895
1778599345951430937,10.914430937,5.385645389556885,-0.22372891008853912,8.218149185180664
1778599345962205312,10.925205312000001,5.385645389556885,-0.22372891008853912,8.218149185180664
1778599345972979792,10.935979792000001,5.327021598815918,-0.3170489966869354,8.22293472290039
1778599345983754167,10.946754167,5.288736343383789,-0.20458634197711945,8.233702659606934
1778599345994528646,10.957528646,5.349154949188232,-0.25722843408584595,8.26540756225586
1778599346005303073,10.968303073000001,5.330610752105713,-0.33080771565437317,8.344968795776367
1778599346016077500,10.9790775,5.353940486907959,-0.3086741268634796,8.287541389465332
1778599346026851979,10.989851979,5.3748779296875,-0.33858439326286316,8.258827209472656
1778599346037626354,11.000626354000001,5.443671703338623,-0.27337998151779175,8.260622024536133
1778599346048400833,11.011400833000001,5.337789058685303,-0.24466611444950104,8.243273735046387
1778599346059175208,11.022175208,5.4514479637146,-0.22851456701755524,8.361719131469727
1778599346069949687,11.032949687,5.4514479637146,-0.22851456701755524,8.361719131469727
1778599346080724167,11.043724167,5.44845724105835,-0.24526432156562805,8.361719131469727
1778599346091498542,11.054498542000001,5.3557353019714355,-0.09152546525001526,8.315058708190918
1778599346102273021,11.065273021000001,5.38624382019043,-0.007178467698395252,8.313263893127441
1778599346113047448,11.076047448,5.646463394165039,-0.05623133108019829,8.366504669189453
1778599346123821875,11.086821875,5.813961029052734,-0.06759724020957947,8.358129501342773
1778599346134596354,11.097596354,5.915655612945557,-0.03888336941599846,8.355138778686523
1778599346145370729,11.108370729,5.850451469421387,-0.02512463741004467,8.355138778686523
1778599346156145208,11.119145208,5.5728840827941895,0.047258246690034866,8.131409645080566
1778599346166919583,11.129919583000001,5.6859450340271,0.0568295381963253,7.996214866638184
1778599346177694062,11.140694062000001,5.936593055725098,-0.06759724020957947,8.060222625732422
1778599346188468542,11.151468542,6.131010055541992,-0.03888336941599846,8.036294937133789
1778599346199242917,11.162242917,5.810371398925781,0.04666004329919815,7.967501163482666
1778599346210017396,11.173017396,5.796014785766602,0.14775680005550385,8.057829856872559
1778599346220791823,11.183791823,5.947958946228027,0.15194423496723175,8.14636516571045
1778599346231566250,11.194566250000001,5.947958946228027,0.15194423496723175,8.14636516571045
1778599346242340729,11.205340729000001,5.986244201660156,0.22552353143692017,8.163712501525879
1778599346253115104,11.216115104,5.767300605773926,0.3290131092071533,8.070990562438965
1778599346263889583,11.226889583,5.560321807861328,0.44386860728263855,7.971688747406006
1778599346274663958,11.237663958,5.586642742156982,0.37866419553756714,8.094919204711914
1778599346285438437,11.248438437,5.4514479637146,0.48454657196998596,8.065009117126465
1778599346296212917,11.259212917000001,5.478367328643799,0.5557330846786499,8.043473243713379
1778599346306987292,11.269987292000001,5.6554365158081055,0.5174478888511658,8.01356315612793
1778599346317761771,11.280761771,5.7164530754089355,0.4331009089946747,7.992625713348389
1778599346328536198,11.291536198000001,5.842076301574707,0.35473597049713135,7.932207107543945
1778599346339310625,11.302310625,5.79481840133667,0.33439695835113525,7.800003528594971
1778599346350085104,11.313085104,5.519643783569336,0.40737804770469666,7.823931694030762
1778599346360859479,11.323859479000001,5.519643783569336,0.40737804770469666,7.823931694030762
1778599346371633958,11.334633958000001,5.365306377410889,0.4492524564266205,8.00100040435791
1778599346382408437,11.345408437000001,5.365306377410889,0.4492524564266205,8.00100040435791
1778599346393182812,11.356182812,5.519643783569336,0.3439682424068451,8.147561073303223
1778599346403957292,11.366957292,5.639883041381836,0.3852444589138031,7.908278942108154
1778599346414731719,11.377731719000002,5.639883041381836,0.3852444589138031,7.908278942108154
1778599346425506146,11.388506146000001,5.514857769012451,0.36610186100006104,7.892725467681885
1778599346436280625,11.399280625000001,5.569892883300781,0.4342973232269287,7.960920810699463
1778599346447055000,11.410055,5.870790481567383,0.5605186820030212,8.270193099975586
1778599346457829531,11.420829531,6.033502101898193,0.6975077986717224,8.449056625366211
1778599346468603958,11.431603958,6.193222999572754,0.763310432434082,8.398209571838379
1778599346479378333,11.442378333,6.314659118652344,0.7549355626106262,8.22293472290039
1778599346490152812,11.453152812,6.33798885345459,0.6610172390937805,8.074580192565918
1778599346500927240,11.46392724,6.231508255004883,0.4953143000602722,7.980063438415527
1778599346511701771,11.474701771000001,6.147161483764648,0.32183465361595154,7.960920810699463
1778599346522476146,11.485476146,5.952744483947754,-0.12083754688501358,8.088338851928711
1778599346533250521,11.496250521,5.7996039390563965,-0.1495514214038849,8.09850788116455
1778599346544025000,11.507025,5.7996039390563965,-0.1495514214038849,8.09850788116455
1778599346554799479,11.517799479,5.797211170196533,-0.2763710021972656,8.15234661102295
1778599346565573854,11.528573854000001,5.859424591064453,-0.3170489966869354,8.24147891998291
1778599346576348333,11.539348333000001,5.998806476593018,-0.2667997181415558,8.233702659606934
1778599346587122812,11.550122812000001,5.469394207000732,-0.13938191533088684,8.117053031921387
1778599346597897187,11.560897187,5.469394207000732,-0.13938191533088684,8.117053031921387
1778599346608671667,11.571671667,5.2731828689575195,-0.129810631275177,8.173283576965332
1778599346619446146,11.582446146,5.240880012512207,-0.04905286431312561,8.230711936950684
1778599346630220625,11.593220625,5.224728107452393,0.061016976833343506,8.100900650024414
1778599346640995000,11.603995000000001,5.224728107452393,0.061016976833343506,8.100900650024414
1778599346651769479,11.614769479000001,5.491528034210205,0.11904292553663254,7.949554920196533
1778599346662543958,11.625543958000002,5.491528034210205,0.11904292553663254,7.949554920196533
1778599346673318385,11.636318385000001,5.196612358093262,0.20817556977272034,7.975277900695801
1778599346684092812,11.647092812,5.218746185302734,0.28115665912628174,7.908278942108154
1778599346694867292,11.657867292,5.218746185302734,0.28115665912628174,7.908278942108154
1778599346705641771,11.668641771,5.3748779296875,0.2787638306617737,8.041080474853516
1778599346716416198,11.679416198,5.411966800689697,0.24047867953777313,7.987840175628662
1778599346727190625,11.690190625000001,5.411966800689697,0.24047867953777313,7.987840175628662
1778599346737965104,11.700965104000002,5.354538917541504,0.2309073805809021,8.007580757141113
1778599346748739583,11.711739583,5.330012321472168,0.22911277413368225,7.922635555267334
1778599346759514062,11.722514062,5.367101192474365,0.18544375896453857,7.914859294891357
1778599346770288437,11.733288437,5.388038158416748,0.2763710021972656,8.029714584350586
1778599346781062917,11.744062917,5.501099109649658,0.31824541091918945,8.038687705993652
1778599346791837396,11.754837396000001,5.32403039932251,0.3008974492549896,8.050053596496582
1778599346802611875,11.765611875000001,5.361717224121094,0.32961133122444153,7.99800968170166
1778599346813386354,11.776386354000001,5.361717224121094,0.32961133122444153,7.99800968170166
1778599346824160729,11.787160729,5.504090309143066,0.3170489966869354,7.993224143981934
1778599346834935208,11.797935208,5.584249973297119,0.30209386348724365,8.019545555114746
1778599346845709687,11.808709687,5.675177097320557,0.36251261830329895,8.008777618408203
1778599346856484167,11.819484167,5.6859450340271,0.3930211067199707,7.988438606262207
1778599346867258646,11.830258646,5.627320766448975,0.4265206456184387,7.901698589324951
1778599346878033125,11.841033125000001,5.633302688598633,0.5413761138916016,7.978867053985596
1778599346888807500,11.851807500000001,5.66201639175415,0.5682953596115112,7.980063438415527
1778599346899581979,11.862581979000002,5.66201639175415,0.5682953596115112,7.980063438415527
1778599346910356458,11.873356458,5.758925914764404,0.592223584651947,7.940581798553467
1778599346921130937,11.884130937,5.811567783355713,0.6293123364448547,8.017151832580566
1778599346931905365,11.894905365000001,5.832505226135254,0.5748756527900696,8.106285095214844
1778599346942679896,11.905679896,5.832505226135254,0.5748756527900696,8.106285095214844
1778599346953454323,11.916454323,5.691926956176758,0.6083751320838928,8.017151832580566
1778599346964228750,11.927228750000001,5.8343000411987305,0.5802595019340515,7.907082557678223
1778599346975003229,11.938003229000001,5.8343000411987305,0.5802595019340515,7.907082557678223
1778599346985777708,11.948777708000001,5.9060845375061035,0.6005984544754028,7.863413333892822
1778599346996552187,11.959552187,5.934798240661621,0.5635097622871399,7.923832416534424
1778599347007326562,11.970326562,5.869594097137451,0.5850451588630676,7.945367813110352
1778599347018101094,11.981101094000001,5.866004943847656,0.5862415432929993,8.000402450561523
1778599347028875573,11.991875573000002,5.792425632476807,0.544965386390686,8.048856735229492
1778599347039650052,12.002650052,5.598606586456299,0.5563312768936157,8.059624671936035
1778599347050424531,12.013424531,5.511867046356201,0.6167500615119934,8.003992080688477
1778599347061199010,12.02419901,5.796014785766602,0.625723123550415,7.923832416534424
1778599347071973437,12.034973437000001,5.796014785766602,0.625723123550415,7.923832416534424
1778599347082747865,12.045747865000001,6.011368751525879,0.6083751320838928,7.974081516265869
1778599347093522344,12.056522344000001,6.067600250244141,0.6406782865524292,7.953144073486328
1778599347104296823,12.067296823000001,6.075376510620117,0.6693921089172363,7.93579626083374
1778599347115071302,12.078071302000001,5.916851997375488,0.6305087804794312,7.933403491973877
1778599347125845781,12.088845781000002,5.770291805267334,0.5970092415809631,8.050053596496582
1778599347136620260,12.09962026,5.758925914764404,0.5497509837150574,8.084151268005371
1778599347147394740,12.11039474,5.690730571746826,0.597607433795929,7.978867053985596
1778599347158169167,12.121169167000001,5.6590256690979,0.5324030518531799,8.072785377502441
1778599347168943594,12.131943594,5.6590256690979,0.5324030518531799,8.072785377502441
1778599347179718073,12.142718073000001,5.84566593170166,0.5096712112426758,8.037490844726562
1778599347190492552,12.153492552000001,5.901298999786377,0.46360939741134644,7.9657063484191895
1778599347201267031,12.164267031000001,5.913861274719238,0.4953143000602722,7.905287742614746
1778599347212041510,12.175041510000002,5.894718647003174,0.4749752879142761,7.992625713348389
1778599347222815990,12.18581599,5.785246849060059,0.48454657196998596,8.060222625732422
1778599347233590469,12.196590469,5.776872158050537,0.4905286431312561,8.042277336120605
1778599347244364948,12.207364948,5.610570907592773,0.42711883783340454,8.088338851928711
1778599347255139427,12.218139427,5.610570907592773,0.42711883783340454,8.088338851928711
1778599347265913802,12.228913802000001,5.736792087554932,0.48095735907554626,7.956135272979736
1778599347276688281,12.239688281000001,5.760720729827881,0.5210371017456055,7.917850017547607
1778599347287462760,12.250462760000001,5.785246849060059,0.5300102233886719,7.926225185394287
1778599347298237240,12.261237240000002,5.819942951202393,0.5419743061065674,7.904689788818359
1778599347309011719,12.272011719,5.763711452484131,0.5443671345710754,7.929215908050537
1778599347319786198,12.282786198,5.833103179931641,0.5754738450050354,7.950153350830078
1778599347330560677,12.293560677,5.939583778381348,0.5515456199645996,7.927421569824219
1778599347341335156,12.304335156,5.939583778381348,0.5515456199645996,7.927421569824219
1778599347352109635,12.315109635,5.831308841705322,0.5587241053581238,7.972286701202393
1778599347362884115,12.325884115000001,5.831308841705322,0.5587241053581238,7.972286701202393
1778599347373658594,12.336658594000001,5.86002254486084,0.4983053207397461,8.021339416503906
1778599347384433073,12.347433073000001,5.845067501068115,0.503689169883728,8.133204460144043
1778599347395207552,12.358207552000001,5.78644323348999,0.5730810165405273,8.123632431030273
1778599347405982031,12.368982031000002,5.886941909790039,0.5862415432929993,8.063214302062988
1778599347416756510,12.37975651,5.936593055725098,0.5880361795425415,8.038687705993652
1778599347427530885,12.390530885,5.917450428009033,0.623330295085907,8.09671401977539
1778599347438305469,12.401305469,5.893522262573242,0.6735795736312866,8.170292854309082
1778599347449079948,12.412079948,5.8343000411987305,0.7357929348945618,8.177471160888672
1778599347459854375,12.422854375,5.861817359924316,0.7854440212249756,8.1493558883667
1778599347470628906,12.433628906000001,5.850451469421387,0.7872386574745178,8.139185905456543
1778599347481403281,12.444403281000001,5.767300605773926,0.7794619798660278,8.176275253295898
1778599347492177865,12.455177865000001,5.712863922119141,0.7884350419044495,8.128418922424316
1778599347502952240,12.46595224,5.7164530754089355,0.8123632669448853,8.072785377502441
1778599347513726719,12.476726719,5.671587944030762,0.8237292170524597,8.069195747375488
1778599347524501198,12.487501198,5.782854080200195,0.7980063557624817,8.053643226623535
1778599347535275677,12.498275677,5.85703182220459,0.8303094506263733,7.99083137512207
1778599347546050208,12.509050208000001,5.896512985229492,0.8530412912368774,7.957930088043213
1778599347556824740,12.51982474,5.866004943847656,0.8267202377319336,7.953144073486328
1778599347567599219,12.530599219,5.780461311340332,0.8141579031944275,7.9351983070373535
1778599347578373698,12.541373698000001,5.8372907638549805,0.7537391185760498,7.963912010192871
1778599347589148177,12.552148177000001,5.867799282073975,0.7136593461036682,7.81555700302124
1778599347599922656,12.562922656000001,5.912664890289307,0.711864709854126,7.849654674530029
1778599347610697135,12.573697135000002,5.878567218780518,0.747757077217102,7.7730841636657715
1778599347621471615,12.584471615,5.84566593170166,0.6999006271362305,7.795217990875244
1778599347632246094,12.595246094,5.763711452484131,0.6544370055198669,7.872984886169434
1778599347643020573,12.606020573,5.663212776184082,0.6801598072052002,7.911269664764404
1778599347653795052,12.616795052,5.663212776184082,0.6801598072052002,7.911269664764404
1778599347664569531,12.627569531,5.618945598602295,0.6789634227752686,7.898707389831543
1778599347675344010,12.63834401,5.593821048736572,0.6783652305603027,7.899903774261475
1778599347686118490,12.649118490000001,5.606383323669434,0.6616154313087463,7.966903209686279
1778599347696892969,12.659892969000001,5.582455158233643,0.6580262184143066,7.993224143981934
1778599347707667448,12.670667448000001,5.638088226318359,0.6209374666213989,7.967501163482666
1778599347718442031,12.681442031000001,5.703890800476074,0.6400800347328186,7.934001445770264
1778599347729216510,12.692216510000002,5.732006549835205,0.6400800347328186,7.95134973526001
1778599347739990990,12.70299099,5.770890235900879,0.6197410821914673,7.963912010192871
1778599347750765469,12.713765469,5.663212776184082,0.6520441770553589,7.994420528411865
1778599347761539948,12.724539948,5.653641700744629,0.714257538318634,8.058428764343262
1778599347772314427,12.735314427,5.868995666503906,0.7316055297851562,8.1553373336792
1778599347783088906,12.746088906,5.9814581871032715,0.7405785918235779,8.139784812927246
1778599347793863385,12.756863385,5.928816318511963,0.778863787651062,8.132007598876953
1778599347804637865,12.767637865000001,5.912066459655762,0.755533754825592,8.155936241149902
1778599347815412344,12.778412344000001,5.866602897644043,0.7058826684951782,8.128418922424316
1778599347826186927,12.789186927000001,5.7720866203308105,0.7076773047447205,8.070990562438965
1778599347836961406,12.799961406000001,5.7996039390563965,0.7262216806411743,8.048856735229492
1778599347847735885,12.810735885000001,5.7996039390563965,0.7262216806411743,8.048856735229492
1778599347858510365,12.821510365,5.8821563720703125,0.6915257573127747,8.014759063720703
1778599347869284844,12.832284844,5.917450428009033,0.6358926296234131,7.966903209686279
1778599347880059323,12.843059323,5.915655612945557,0.5928218364715576,8.007580757141113
1778599347890833802,12.853833802,5.7720866203308105,0.5515456199645996,8.038687705993652
1778599347901608281,12.864608281,5.754140377044678,0.5509474277496338,8.094919204711914
1778599347912382865,12.875382865,5.874379634857178,0.5228317379951477,8.0291166305542
1778599347923157344,12.886157344,5.868995666503906,0.5126622319221497,8.006982803344727
1778599347933931823,12.896931823000001,5.825924873352051,0.5144568681716919,8.01057243347168
1778599347944706302,12.907706302000001,5.803791522979736,0.5048855543136597,7.99800968170166
1778599347955480781,12.918480781000001,5.734997749328613,0.5252245664596558,7.9860453605651855
1778599347966255260,12.929255260000001,5.827719688415527,0.5365904569625854,7.977072715759277
1778599347977029740,12.94002974,5.866602897644043,0.47258245944976807,7.934001445770264
1778599347987804323,12.950804323000002,5.68893575668335,0.48394837975502014,7.966903209686279
1778599347998578802,12.961578802,5.586642742156982,0.46360939741134644,7.997411251068115
1778599348009353281,12.972353281,5.6584272384643555,0.47617170214653015,8.023134231567383
1778599348020127760,12.98312776,5.718247890472412,0.5222335457801819,8.014759063720703
1778599348030902240,12.99390224,5.660820007324219,0.5335994362831116,8.031509399414062
1778599348041676719,13.004676719,5.695516109466553,0.5718846321105957,8.060222625732422
1778599348052451198,13.015451198000001,5.8235321044921875,0.5515456199645996,8.063214302062988
1778599348063225729,13.026225729,5.941378593444824,0.5300102233886719,8.085348129272461
1778599348074000260,13.037000260000001,5.987440586090088,0.5491527915000916,8.031509399414062
1778599348084774740,13.047774740000001,5.912066459655762,0.5491527915000916,7.993224143981934
1778599348095549219,13.058549219000001,5.924030780792236,0.5258227586746216,8.051848411560059
1778599348106323698,13.069323698000002,5.983851432800293,0.4749752879142761,8.067401885986328
1778599348117098177,13.080098177,5.983851432800293,0.4749752879142761,8.067401885986328
1778599348127872656,13.090872656,5.892923831939697,0.486939400434494,8.085348129272461
1778599348138647240,13.10164724,5.768496990203857,0.4905286431312561,8.115856170654297
1778599348149421719,13.112421719,5.779862880706787,0.4169493317604065,8.188837051391602
1778599348160196198,13.123196198,5.943173408508301,0.39481574296951294,8.164909362792969
1778599348170970677,13.133970677,5.9407806396484375,0.36610186100006104,8.064410209655762
1778599348181745156,13.144745156,5.934798240661621,0.3200400173664093,8.069794654846191
1778599348192519635,13.155519635000001,5.868995666503906,0.3565305769443512,8.088338851928711
1778599348203294115,13.166294115000001,5.815157413482666,0.36610186100006104,8.045866012573242
1778599348214068698,13.177068698000001,5.870790481567383,0.3936193287372589,8.033902168273926
1778599348224843177,13.187843177000001,5.917450428009033,0.39840495586395264,7.9866437911987305
1778599348235617656,13.198617656000001,5.912066459655762,0.32602208852767944,7.9657063484191895
1778599348246392135,13.209392135000002,5.877370834350586,0.3852444589138031,7.943572998046875
1778599348257166615,13.220166615,5.864808082580566,0.3403790295124054,7.945367813110352
1778599348267941094,13.230941094,5.859424591064453,0.3326023519039154,7.9381890296936035
1778599348278715677,13.241715677,5.970092296600342,0.29790642857551575,7.944769382476807
1778599348289490156,13.252490156,6.029314994812012,0.24167509377002716,7.910073280334473
1778599348300264635,13.263264635,5.917450428009033,0.22851456701755524,7.8765740394592285
1778599348311039115,13.274039115,5.80199670791626,0.2476571500301361,7.8903326988220215
1778599348321813594,13.284813594000001,5.84566593170166,0.22432711720466614,7.93579626083374
1778599348332588073,13.295588073000001,5.9922261238098145,0.19680966436862946,7.983652591705322
1778599348343362552,13.306362552000001,5.8821563720703125,0.1537388563156128,7.931010723114014
1778599348354137135,13.317137135000001,5.941378593444824,0.18125630915164948,7.957331657409668
1778599348364911615,13.327911615000001,5.974279880523682,0.129810631275177,7.954938888549805
1778599348375686094,13.338686094000002,5.828317642211914,0.14416755735874176,7.934001445770264
1778599348386460573,13.349460573,5.708078384399414,0.1746760457754135,7.920841217041016
1778599348397235052,13.360235052,5.756533145904541,0.10887342691421509,7.948358535766602
1778599348408009531,13.371009531,5.727818965911865,0.0729810893535614,7.968697547912598
1778599348418784115,13.381784115,5.696712493896484,0.08554340898990631,7.936992645263672
1778599348429558594,13.392558594,5.746363639831543,0.019740786403417587,7.892725467681885
1778599348440333073,13.403333073,5.6925249099731445,0.0005982056609354913,7.8526458740234375
1778599348451107552,13.414107552,5.730810165405273,-0.0005982056609354913,7.896913051605225
1778599348461882031,13.424882031000001,5.856433391571045,-0.03469592705368996,7.88076114654541
1778599348472656510,13.435656510000001,5.73978328704834,-0.05383851006627083,7.856832981109619
1778599348483430990,13.446430990000001,5.679962635040283,-0.010767702013254166,7.901698589324951
1778599348494205521,13.457205521,5.776872158050537,-0.09690931439399719,7.878368377685547
1778599348504980052,13.467980052000001,5.776872158050537,-0.09690931439399719,7.878368377685547
1778599348515754531,13.478754531000002,5.645864963531494,-0.09930214285850525,7.841279983520508
1778599348526529010,13.48952901,5.67338228225708,-0.15553347766399384,7.917850017547607
1778599348537303490,13.50030349,5.66201639175415,-0.25244277715682983,7.973483085632324
1778599348548077969,13.511077969,5.518447399139404,-0.22552353143692017,7.858627796173096
1778599348558852448,13.521852448,5.514857769012451,-0.20518454909324646,7.978867053985596
1778599348569627031,13.532627031,5.638088226318359,-0.17946170270442963,7.901698589324951
1778599348580401510,13.54340151,5.4179487228393555,-0.14416755735874176,7.8903326988220215
1778599348591175990,13.554175990000001,5.5005011558532715,-0.010767702013254166,7.897511005401611
1778599348601950469,13.564950469000001,5.522036552429199,-0.04247260093688965,7.770691394805908
1778599348612724948,13.575724948000001,5.6554365158081055,-0.010169495828449726,7.715656757354736
1778599348623499427,13.586499427000001,5.695516109466553,0.003589233849197626,7.715058326721191
1778599348634273906,13.597273906000002,5.7164530754089355,0.0005982056609354913,7.662416458129883
1778599348645048437,13.608048437,5.828317642211914,-0.08075776696205139,7.7838521003723145
1778599348655822969,13.618822969,5.6823554039001465,-0.08673982322216034,7.800003528594971
1778599348666597448,13.629597448,5.6823554039001465,-0.08673982322216034,7.800003528594971
1778599348677371875,13.640371875000001,5.542375564575195,-0.09212367236614227,7.852047443389893
1778599348688146458,13.651146458000001,5.577669620513916,-0.15732808411121368,7.911269664764404
1778599348698920937,13.661920937000001,5.717649936676025,-0.1824527233839035,7.899903774261475
1778599348709695417,13.672695417000002,5.872584819793701,-0.16510476171970367,7.913064479827881
1778599348720469896,13.683469896,5.849853038787842,-0.22432711720466614,7.927421569824219
1778599348731244375,13.694244375,5.730810165405273,-0.17168502509593964,7.899903774261475
1778599348742018854,13.705018854,5.730810165405273,-0.17587246000766754,7.975277900695801
1778599348752793333,13.715793333,5.8851470947265625,-0.19561325013637543,8.037490844726562
1778599348763567812,13.726567812,5.955735683441162,-0.22552353143692017,8.035696983337402
1778599348774342292,13.737342292000001,5.955735683441162,-0.22552353143692017,8.035696983337402
1778599348785116875,13.748116875000001,5.916851997375488,-0.23808585107326508,8.045268058776855
1778599348795891354,13.758891354000001,5.885745525360107,-0.24526432156562805,8.090133666992188
1778599348806665833,13.769665833000001,5.91924524307251,-0.1537388563156128,8.064410209655762
1778599348817440312,13.780440312000001,6.036493301391602,-0.12801600992679596,7.989634990692139
1778599348828214792,13.791214792000002,6.049654006958008,-0.14117653667926788,7.974081516265869
1778599348838989271,13.801989271,5.969494342803955,-0.09690931439399719,8.021339416503906
1778599348849763750,13.81276375,5.863013744354248,-0.10169496387243271,7.981259822845459
1778599348860538229,13.823538229,5.807380676269531,-0.09930214285850525,7.971688747406006
1778599348871312708,13.834312708,5.754140377044678,-0.07896314561367035,7.967501163482666
1778599348882087292,13.845087292,5.763711452484131,-0.11066804826259613,7.907082557678223
1778599348892861771,13.855861771,5.80199670791626,-0.15254244208335876,7.957331657409668
1778599348903636250,13.86663625,5.872584819793701,-0.08973085135221481,7.809575080871582
1778599348914410729,13.877410729000001,6.036493301391602,-0.15553347766399384,7.868198871612549
1778599348925185208,13.888185208000001,6.019145488739014,-0.13998012244701385,7.797012805938721
1778599348935959687,13.898959687000001,5.947360515594482,-0.16390834748744965,7.823931694030762
1778599348946734167,13.909734167000002,5.960521221160889,-0.14297115802764893,7.809575080871582
1778599348957508646,13.920508646,5.952744483947754,-0.13459627330303192,7.726424217224121
1778599348968283125,13.931283125,6.001797199249268,-0.18125630915164948,7.742575645446777
1778599348979057604,13.942057604,6.003592014312744,-0.2225325107574463,7.746763229370117
1778599348989832187,13.952832187,6.003592014312744,-0.2225325107574463,7.746763229370117
1778599349000606667,13.963606667,6.215356826782227,-0.267397940158844,7.822137355804443
1778599349011381146,13.974381146,6.053243160247803,-0.26081767678260803,7.801199913024902
1778599349022155625,13.985155625,5.829514026641846,-0.2309073805809021,7.818548202514648
1778599349032930104,13.995930104000001,5.888736724853516,-0.2799602448940277,7.859225749969482
1778599349043704583,14.006704583000001,5.888736724853516,-0.2799602448940277,7.859225749969482
1778599349054479062,14.017479062000001,5.97308349609375,-0.33080771565437317,7.81555700302124
1778599349065253542,14.028253542000002,5.939583778381348,-0.3529413342475891,7.782057285308838
1778599349076028021,14.039028021,5.928816318511963,-0.4378865361213684,7.849654674530029
1778599349086802500,14.0498025,5.8821563720703125,-0.43968117237091064,7.809575080871582
1778599349097576979,14.060576979,5.812166213989258,-0.5204389095306396,7.788637638092041
1778599349108351458,14.071351458,5.877370834350586,-0.5467599630355835,7.878368377685547
1778599349119125937,14.082125937,5.928217887878418,-0.5575276613235474,7.806583881378174
1778599349129900417,14.092900417000001,5.974279880523682,-0.544965386390686,7.785646915435791
1778599349140675000,14.103675,5.974279880523682,-0.544965386390686,7.785646915435791
1778599349151449479,14.114449479000001,6.065207004547119,-0.544965386390686,7.770691394805908
1778599349162223958,14.125223958000001,6.118447303771973,-0.5623133182525635,7.772486209869385
1778599349172998437,14.135998437000001,6.145366668701172,-0.519242525100708,7.730013370513916
1778599349183772917,14.146772917000002,6.096313953399658,-0.5258227586746216,7.692924976348877
1778599349194547396,14.157547396,6.096313953399658,-0.5258227586746216,7.692924976348877
1778599349205321875,14.168321875,6.14835786819458,-0.47258245944976807,7.688138961791992
1778599349216096354,14.179096354,6.134599208831787,-0.45104706287384033,7.692924976348877
1778599349226870833,14.189870833,6.08195686340332,-0.44386860728263855,7.662416458129883
1778599349237645312,14.200645312,6.117849349975586,-0.4666004180908203,7.785048484802246
1778599349248419792,14.211419792000001,6.124429702758789,-0.5096712112426758,7.841279983520508
1778599349259194271,14.222194271000001,6.154938220977783,-0.4654040038585663,7.857431411743164
1778599349269968750,14.232968750000001,6.252445697784424,-0.41575294733047485,7.800003528594971
1778599349280743229,14.243743229000001,6.306882381439209,-0.43489551544189453,7.801798343658447
1778599349291517708,14.254517708000002,6.308078765869141,-0.4492524564266205,7.849056243896484
1778599349302292292,14.265292292000002,6.245865345001221,-0.4731806814670563,7.871788501739502
