time,seconds_elapsed,z,y,x
1778599335037000000,0.0,0.002901607658714056,-0.003665188793092966,0.03298669680953026
1778599335047774271,0.010774271,0.007635809946805239,0.006108647678047419,0.02871064469218254
1778599335058548594,0.021548594,0.011453714221715927,0.010995565913617611,0.022907428443431854
1778599335069322917,0.032322917,0.013897174037992954,0.005345067009329796,0.010690134018659592
1778599335080097240,0.04309724,0.019242240116000175,0.012217295356094837,-0.0027488914784044027
1778599335090871562,0.053871562000000005,0.02107483521103859,0.020769402384757996,-0.006719512399286032
1778599335101645833,0.064645833,0.01740964688360691,0.019242240116000175,-0.006414080038666725
1778599335112420104,0.075420104,0.01435532234609127,0.03375028073787689,-0.003970621153712273
1778599335123194427,0.086194427,0.008552107028663158,0.03329212963581085,-0.003970621153712273
1778599335133968750,0.09696875,0.0027488914784044027,0.029626941308379173,-0.004886918235570192
1778599335144743073,0.10774307300000001,0.001221729558892548,0.02107483521103859,-0.0019853105768561363
1778599335155517292,0.11851729200000001,-0.0009162971982732415,0.010537417605519295,-0.0
1778599335166291615,0.129291615,-0.0032070400193333626,0.014660755172371864,0.0062613640911877155
1778599335177065937,0.140065937,-0.0032070400193333626,0.02000582218170166,0.01435532234609127
1778599335187840260,0.15084026,-0.005803215317428112,0.016646064817905426,0.01511890348047018
1778599335198614479,0.161614479,-0.002901607658714056,0.020311253145337105,0.012217295356094837
1778599335209388854,0.172388854,-0.0019853105768561363,0.01908952370285988,0.007941242307424545
1778599335220163229,0.183163229,-0.002443459117785096,0.014202605932950974,0.004581485874950886
1778599335230937500,0.1939375,-0.004886918235570192,0.004428769461810589,0.003665188793092966
1778599335241711771,0.20471177100000001,-0.008857538923621178,-0.007024944759905338,-0.004734201822429895
1778599335252486094,0.21548609400000002,-0.0102319847792387,-0.013439024798572063,-0.006872228812426329
1778599335263260417,0.22626041700000002,-0.009010255336761475,-0.007024944759905338,-0.000610864779446274
1778599335274034740,0.23703474000000002,-0.006108647678047419,0.005650499369949102,0.006719512399286032
1778599335284809062,0.24780906200000002,-0.001221729558892548,0.006414080038666725,0.011453714221715927
1778599335295583333,0.258583333,-0.001679878099821508,-0.0009162971982732415,0.013439024798572063
1778599335306357604,0.26935760400000003,-0.0009162971982732415,0.003359756199643016,0.016035201027989388
1778599335317131927,0.280131927,0.004428769461810589,0.01588248461484909,0.017715077847242355
1778599335327906146,0.29090614600000003,0.005345067009329796,0.010995565913617611,0.015577051788568497
1778599335338680573,0.301680573,0.007024944759905338,0.005650499369949102,0.008246674202382565
1778599335349454896,0.31245489600000004,0.009315688163042068,-0.001679878099821508,0.0054977829568088055
1778599335360229167,0.32322916700000004,0.014202605932950974,-0.004581485874950886,0.0030543238390237093
1778599335371003437,0.334003437,0.017104214057326317,-0.003359756199643016,-0.0007635809597559273
1778599335381777760,0.34477776000000004,0.011759147047996521,-0.012980876490473747,-0.0030543238390237093
1778599335392552083,0.355552083,0.005803215317428112,-0.014966187067329884,-0.002290742937475443
1778599335403326406,0.36632640600000005,0.001221729558892548,-0.005803215317428112,0.002901607658714056
1778599335414100729,0.377100729,-0.003665188793092966,0.002443459117785096,0.006719512399286032
1778599335424875052,0.387875052,-0.007635809946805239,0.007330377586185932,0.0062613640911877155
1778599335435649375,0.39864937500000003,-0.013744457624852657,-0.005650499369949102,0.008246674202382565
1778599335446423646,0.40942364600000003,-0.016340631991624832,-0.00946840364485979,0.00946840364485979
1778599335457197917,0.42019791700000003,-0.013439024798572063,-0.001221729558892548,0.014660755172371864
1778599335467972240,0.43097224,-0.007635809946805239,0.0019853105768561363,0.02214384824037552
1778599335478746562,0.441746562,-0.004123337101191282,-0.008552107028663158,0.02260199747979641
1778599335489520885,0.45252088500000004,0.0007635809597559273,-0.014660755172371864,0.01511890348047018
1778599335500295208,0.463295208,0.003970621153712273,-0.012522728182375431,0.006566796451807022
1778599335511069531,0.47406953100000004,-0.001221729558892548,-0.018784092739224434,0.009010255336761475
1778599335521843854,0.484843854,-0.006872228812426329,-0.01908952370285988,0.01649334840476513
1778599335532618125,0.495618125,-0.011759147047996521,-0.02367101050913334,0.02214384824037552
1778599335543392396,0.5063923960000001,-0.013897174037992954,-0.023212861269712448,0.02367101050913334
1778599335554166771,0.5171667710000001,-0.012980876490473747,-0.013897174037992954,0.019700389355421066
1778599335564941042,0.527941042,-0.012980876490473747,-0.0027488914784044027,0.01359174121171236
1778599335575715365,0.5387153650000001,-0.012980876490473747,-0.004581485874950886,0.008246674202382565
1778599335586489687,0.549489687,-0.016340631991624832,-0.014202605932950974,0.013133592903614044
1778599335597264010,0.56026401,-0.016646064817905426,-0.006566796451807022,0.014813470654189587
1778599335608038333,0.5710383330000001,-0.013439024798572063,0.011300998739898205,0.017104214057326317
1778599335618812656,0.581812656,-0.014966187067329884,0.01511890348047018,0.016035201027989388
1778599335629586979,0.592586979,-0.014660755172371864,0.01954767294228077,0.009926552884280682
1778599335640361250,0.6033612500000001,-0.0154243353754282,0.009010255336761475,-0.002290742937475443
1778599335651135521,0.614135521,-0.010690134018659592,0.0019853105768561363,-0.006719512399286032
1778599335661909896,0.624909896,-0.0027488914784044027,0.000305432389723137,-0.007635809946805239
1778599335672684271,0.635684271,0.0021380267571657896,-0.012217295356094837,-0.0015271619195118546
1778599335683458490,0.64645849,0.002443459117785096,-0.0204639695584774,0.0001527161948615685
1778599335694232812,0.657232812,0.001221729558892548,-0.018325943499803543,-0.002290742937475443
1778599335705007135,0.6680071350000001,0.000305432389723137,-0.012522728182375431,0.0054977829568088055
1778599335715781458,0.678781458,-0.0009162971982732415,-0.005345067009329796,0.013133592903614044
1778599335726555781,0.689555781,-0.001679878099821508,0.000305432389723137,0.01511890348047018
1778599335737330104,0.7003301040000001,-0.001679878099821508,-0.0007635809597559273,0.017562363296747208
1778599335748104375,0.711104375,-0.003970621153712273,-0.007024944759905338,0.015271619893610477
1778599335758878750,0.72187875,-0.005345067009329796,-0.01588248461484909,0.0102319847792387
1778599335769653021,0.7326530210000001,-0.004581485874950886,-0.011453714221715927,0.007483093533664942
1778599335780427292,0.743427292,-0.000305432389723137,-0.007788525894284248,0.0038179049734026194
1778599335791201615,0.754201615,0.004428769461810589,-0.001221729558892548,-0.0010690133785828948
1778599335801975937,0.764975937,0.008857538923621178,-0.002901607658714056,0.000610864779446274
1778599335812750260,0.77575026,0.008246674202382565,-0.007635809946805239,-0.005192350596189499
1778599335823524583,0.786524583,0.0021380267571657896,-0.011911863461136818,-0.006719512399286032
1778599335834298906,0.7972989060000001,-0.0021380267571657896,-0.008246674202382565,-0.011606430634856224
1778599335845073229,0.808073229,-0.007024944759905338,0.002901607658714056,-0.017715077847242355
1778599335855847552,0.818847552,-0.009010255336761475,0.005650499369949102,-0.02153298258781433
1778599335866621875,0.8296218750000001,-0.012217295356094837,0.004428769461810589,-0.025961752980947495
1778599335877396146,0.840396146,-0.014202605932950974,-0.0007635809597559273,-0.026878049597144127
1778599335888170521,0.851170521,-0.012217295356094837,-0.005803215317428112,-0.028405211865901947
1778599335898944792,0.8619447920000001,-0.009010255336761475,-0.0032070400193333626,-0.01740964688360691
1778599335909719062,0.872719062,-0.004886918235570192,-0.005803215317428112,-0.0010690133785828948
1778599335920493437,0.883493437,-0.004123337101191282,-0.010537417605519295,0.010690134018659592
1778599335931267708,0.8942677080000001,0.000305432389723137,-0.007635809946805239,0.01802051067352295
1778599335942042031,0.905042031,0.001679878099821508,-0.006566796451807022,0.025045456364750862
1778599335952816354,0.915816354,0.0015271619195118546,0.003970621153712273,0.031154103577136993
1778599335963590677,0.9265906770000001,-0.0021380267571657896,-0.0032070400193333626,0.0334448479115963
1778599335974365000,0.937365,-0.008093958720564842,-0.009315688163042068,0.027336198836565018
1778599335985139323,0.948139323,-0.01511890348047018,-0.0,0.022449281066656113
1778599335995913646,0.9589136460000001,-0.017104214057326317,0.006414080038666725,0.02214384824037552
1778599336006687969,0.9696879690000001,-0.016798781231045723,0.010079269297420979,0.01893680728971958
1778599336017462292,0.980462292,-0.01511890348047018,0.007788525894284248,0.0102319847792387
1778599336028236562,0.9912365620000001,-0.011300998739898205,0.005803215317428112,0.0021380267571657896
1778599336039010937,1.002010937,-0.008093958720564842,0.002901607658714056,-0.0030543238390237093
1778599336049785208,1.0127852080000002,-0.006872228812426329,-0.005192350596189499,-0.007177661173045635
1778599336060559479,1.023559479,-0.003970621153712273,-0.009315688163042068,-0.010384701192378998
1778599336071333854,1.034333854,0.002443459117785096,0.0019853105768561363,-0.011300998739898205
1778599336082108125,1.045108125,0.004886918235570192,0.006108647678047419,-0.011759147047996521
1778599336092882500,1.0558825,0.005650499369949102,-0.0019853105768561363,-0.011606430634856224
1778599336103656771,1.0666567710000001,0.005192350596189499,-0.003359756199643016,-0.011759147047996521
1778599336114431094,1.077431094,0.003359756199643016,-0.011453714221715927,-0.006872228812426329
1778599336125205417,1.0882054170000002,0.006414080038666725,-0.008552107028663158,-0.003665188793092966
1778599336135979740,1.09897974,0.0102319847792387,0.002443459117785096,0.0062613640911877155
1778599336146754062,1.1097540620000002,0.012980876490473747,0.007024944759905338,0.019242240116000175
1778599336157528385,1.120528385,0.011453714221715927,0.006566796451807022,0.02626718580722809
1778599336168302708,1.131302708,0.007635809946805239,0.003359756199643016,0.02626718580722809
1778599336179077031,1.1420770310000001,-0.0,0.0027488914784044027,0.023365577682852745
1778599336189851354,1.152851354,-0.005803215317428112,-0.004581485874950886,0.013897174037992954
1778599336200625677,1.163625677,-0.006108647678047419,-0.001679878099821508,0.005039634648710489
1778599336211400000,1.1744,-0.0019853105768561363,0.004123337101191282,-0.0
1778599336222174323,1.185174323,0.001679878099821508,0.007330377586185932,-0.002290742937475443
1778599336232948646,1.1959486460000002,0.004428769461810589,0.006872228812426329,-0.002290742937475443
1778599336243722969,1.206722969,0.006414080038666725,-0.003970621153712273,0.002901607658714056
1778599336254497292,1.217497292,0.00946840364485979,-0.010995565913617611,0.001679878099821508
1778599336265271562,1.228271562,0.009773836471140385,-0.002443459117785096,0.002901607658714056
1778599336276045833,1.239045833,0.006414080038666725,-0.001221729558892548,0.006108647678047419
1778599336286820208,1.249820208,-0.0019853105768561363,0.00045814859913662076,0.010690134018659592
1778599336297594479,1.260594479,-0.012522728182375431,-0.005803215317428112,0.020922118797898293
1778599336308368854,1.271368854,-0.018631376326084137,-0.006414080038666725,0.02932151034474373
1778599336319143125,1.2821431250000002,-0.01802051067352295,0.0015271619195118546,0.03802633285522461
1778599336329917448,1.292917448,-0.0154243353754282,0.003359756199643016,0.04459312930703163
1778599336340691771,1.303691771,-0.01435532234609127,0.0015271619195118546,0.042913250625133514
1778599336351466094,1.3144660940000001,-0.011453714221715927,0.011453714221715927,0.0360410213470459
1778599336362240417,1.325240417,-0.006872228812426329,0.017867794260382652,0.028557928279042244
1778599336373014740,1.33601474,0.000305432389723137,0.024740023538470268,0.016798781231045723
1778599336383789062,1.346789062,0.006108647678047419,0.02367101050913334,-0.000610864779446274
1778599336394563385,1.3575633850000002,0.007330377586185932,0.013744457624852657,-0.013744457624852657
1778599336405337708,1.368337708,0.0027488914784044027,0.004581485874950886,-0.01588248461484909
1778599336416112031,1.379112031,-0.00045814859913662076,0.00045814859913662076,-0.01206457894295454
1778599336426886354,1.3898863540000002,0.0009162971982732415,0.006566796451807022,-0.007177661173045635
1778599336437660677,1.400660677,0.003665188793092966,0.006414080038666725,-0.003970621153712273
1778599336448435000,1.411435,0.0032070400193333626,-0.002443459117785096,-0.008552107028663158
1778599336459209323,1.4222093230000001,-0.005192350596189499,-0.016798781231045723,-0.015271619893610477
1778599336469983646,1.432983646,-0.009773836471140385,-0.016340631991624832,-0.01282816007733345
1778599336480757969,1.4437579690000002,-0.012675444595515728,-0.007024944759905338,-0.004886918235570192
1778599336491532292,1.4545322920000001,-0.01435532234609127,-0.000305432389723137,0.005803215317428112
1778599336502306615,1.465306615,-0.012522728182375431,0.007788525894284248,0.011606430634856224
1778599336513080937,1.476080937,-0.012675444595515728,0.0015271619195118546,0.013133592903614044
1778599336523855260,1.48685526,-0.013439024798572063,0.001221729558892548,0.013897174037992954
1778599336534629583,1.4976295830000002,-0.011300998739898205,-0.0007635809597559273,0.01649334840476513
1778599336545403854,1.508403854,-0.008246674202382565,-0.002901607658714056,0.020769402384757996
1778599336556178229,1.519178229,-0.005803215317428112,-0.004581485874950886,0.023365577682852745
1778599336566952500,1.5299525,0.000305432389723137,-0.0009162971982732415,0.021227551624178886
1778599336577726875,1.540726875,0.006566796451807022,0.009010255336761475,0.013439024798572063
1778599336588501146,1.551501146,0.00946840364485979,0.004581485874950886,0.007941242307424545
1778599336599275521,1.5622755210000001,0.008246674202382565,-0.000305432389723137,0.007788525894284248
1778599336610049792,1.5730497920000002,0.006566796451807022,0.0009162971982732415,0.006566796451807022
1778599336620824167,1.5838241670000002,0.004123337101191282,0.0027488914784044027,0.005345067009329796
1778599336631598437,1.5945984370000001,0.0032070400193333626,-0.0,0.0021380267571657896
1778599336642372708,1.6053727080000002,0.001221729558892548,0.003665188793092966,-0.007177661173045635
1778599336653147083,1.6161470830000002,-0.0,0.011300998739898205,-0.015729768201708794
1778599336663921354,1.626921354,-0.0021380267571657896,0.003359756199643016,-0.02107483521103859
1778599336674695729,1.637695729,-0.000305432389723137,0.004581485874950886,-0.025503603741526604
1778599336685470000,1.64847,0.004581485874950886,0.013439024798572063,-0.028863361105322838
1778599336696244323,1.659244323,0.009010255336761475,0.008093958720564842,-0.02626718580722809
1778599336707018646,1.6700186460000002,0.010690134018659592,0.009315688163042068,-0.014202605932950974
1778599336717793021,1.6807930210000002,0.010995565913617611,0.009773836471140385,-0.004428769461810589
1778599336728567292,1.691567292,0.007788525894284248,0.0015271619195118546,0.0013744457392022014
1778599336739341615,1.7023416150000001,0.0015271619195118546,-0.00946840364485979,0.005039634648710489
1778599336750115937,1.7131159370000002,-0.0015271619195118546,-0.005803215317428112,0.005803215317428112
1778599336760890260,1.7238902600000001,-0.0009162971982732415,0.0021380267571657896,0.004123337101191282
1778599336771664583,1.734664583,-0.003970621153712273,0.003665188793092966,0.004581485874950886
1778599336782438906,1.7454389060000002,-0.004886918235570192,-0.0032070400193333626,0.005803215317428112
1778599336793213229,1.756213229,-0.001221729558892548,-0.003665188793092966,0.003665188793092966
1778599336803987552,1.766987552,0.004886918235570192,0.001221729558892548,0.00045814859913662076
1778599336814761875,1.7777618750000002,0.009773836471140385,0.002901607658714056,-0.000610864779446274
1778599336825536198,1.788536198,0.009773836471140385,-0.002443459117785096,-0.0007635809597559273
1778599336836310521,1.7993105210000002,0.009010255336761475,-0.005345067009329796,-0.000305432389723137
1778599336847084844,1.8100848440000001,0.009315688163042068,-0.007024944759905338,0.0001527161948615685
1778599336857859167,1.820859167,0.007788525894284248,-0.009315688163042068,0.0013744457392022014
1778599336868633542,1.831633542,0.007635809946805239,-0.006872228812426329,0.001832594396546483
1778599336879407812,1.842407812,0.007635809946805239,-0.000305432389723137,0.0013744457392022014
1778599336890182135,1.8531821350000002,0.006108647678047419,-0.002901607658714056,0.0025961752980947495
1778599336900956458,1.863956458,0.003359756199643016,-0.008552107028663158,0.009010255336761475
1778599336911730781,1.874730781,0.004886918235570192,-0.008246674202382565,0.012370011769235134
1778599336922505104,1.8855051040000002,0.010079269297420979,-0.002443459117785096,0.013897174037992954
1778599336933279479,1.8962794790000002,0.012522728182375431,-0.0021380267571657896,0.01588248461484909
1778599336944053750,1.9070537500000002,0.01435532234609127,0.000305432389723137,0.014660755172371864
1778599336954828073,1.9178280730000001,0.018325943499803543,0.009315688163042068,0.011453714221715927
1778599336965602396,1.928602396,0.019242240116000175,0.008552107028663158,0.006566796451807022
1778599336976376667,1.939376667,0.015577051788568497,-0.0015271619195118546,-0.0007635809597559273
1778599336987151042,1.9501510420000001,0.013897174037992954,0.0015271619195118546,-0.013744457624852657
1778599336997925312,1.960925312,0.014966187067329884,0.004428769461810589,-0.029626941308379173
1778599337008699687,1.971699687,0.013744457624852657,-0.007024944759905338,-0.034208428114652634
1778599337019473958,1.9824739580000001,0.01740964688360691,0.00045814859913662076,-0.029932374134659767
1778599337030248333,1.9932483330000001,0.021685699000954628,0.017104214057326317,-0.020311253145337105
1778599337041022604,2.004022604,0.024892739951610565,0.020311253145337105,-0.003512472379952669
1778599337051796979,2.014796979,0.02412915788590908,0.01740964688360691,0.012217295356094837
1778599337062571250,2.02557125,0.022296564653515816,0.01588248461484909,0.02458730712532997
1778599337073345625,2.036345625,0.01908952370285988,0.02000582218170166,0.027336198836565018
1778599337084119896,2.0471198960000003,0.013439024798572063,0.018325943499803543,0.02260199747979641
1778599337094894167,2.057894167,0.007024944759905338,0.012675444595515728,0.008704823441803455
1778599337105668542,2.068668542,-0.003359756199643016,0.009773836471140385,-0.006872228812426329
1778599337116442812,2.079442812,-0.010537417605519295,0.011300998739898205,-0.023212861269712448
1778599337127217187,2.090217187,-0.0154243353754282,0.011300998739898205,-0.037720900028944016
1778599337137991458,2.100991458,-0.019853105768561363,0.006872228812426329,-0.04108065739274025
1778599337148765833,2.111765833,-0.02000582218170166,0.003665188793092966,-0.0386371985077858
1778599337159540104,2.122540104,-0.01740964688360691,0.005192350596189499,-0.03695731982588768
1778599337170314323,2.133314323,-0.00946840364485979,0.009773836471140385,-0.031612250953912735
1778599337181088750,2.1440887500000003,-0.0032070400193333626,0.011453714221715927,-0.02153298258781433
1778599337191863073,2.154863073,0.0015271619195118546,0.013439024798572063,-0.008857538923621178
1778599337202637396,2.165637396,0.003970621153712273,0.017104214057326317,0.002443459117785096
1778599337213411719,2.1764117190000003,-0.000305432389723137,0.011911863461136818,0.003359756199643016
1778599337224186042,2.187186042,-0.003359756199643016,0.005192350596189499,0.001832594396546483
1778599337234960365,2.197960365,-0.005803215317428112,0.005345067009329796,-0.0010690133785828948
1778599337245734687,2.208734687,-0.013744457624852657,-0.0007635809597559273,-0.0032070400193333626
1778599337256509010,2.2195090100000003,-0.012675444595515728,-0.004886918235570192,-0.0027488914784044027
1778599337267283333,2.230283333,-0.009010255336761475,-0.006108647678047419,-0.000610864779446274
1778599337278057656,2.241057656,-0.005803215317428112,-0.007024944759905338,0.005039634648710489
1778599337288831979,2.2518319790000003,-0.001679878099821508,-0.007788525894284248,0.009010255336761475
1778599337299606302,2.262606302,-0.0,-0.007024944759905338,0.00946840364485979
1778599337310380625,2.273380625,-0.001221729558892548,-0.01435532234609127,0.012217295356094837
1778599337321154948,2.2841549480000003,-0.001221729558892548,-0.010079269297420979,0.012370011769235134
1778599337331929271,2.294929271,-0.0009162971982732415,-0.00045814859913662076,0.0102319847792387
1778599337342703594,2.305703594,-0.003665188793092966,0.000305432389723137,0.0021380267571657896
1778599337353477917,2.3164779170000003,-0.005803215317428112,-0.003665188793092966,-0.004428769461810589
1778599337364252240,2.32725224,-0.008857538923621178,-0.004123337101191282,-0.008857538923621178
1778599337375026562,2.338026562,-0.0102319847792387,-0.004886918235570192,-0.009773836471140385
1778599337385800885,2.348800885,-0.009773836471140385,-0.003359756199643016,-0.01206457894295454
1778599337396575208,2.3595752080000003,-0.007024944759905338,0.00045814859913662076,-0.015271619893610477
1778599337407349531,2.370349531,-0.007788525894284248,-0.0019853105768561363,-0.014202605932950974
1778599337418123854,2.381123854,-0.007024944759905338,-0.0021380267571657896,-0.009162971749901772
1778599337428898177,2.3918981770000003,-0.005650499369949102,0.0015271619195118546,0.003359756199643016
1778599337439672500,2.4026725,-0.005803215317428112,-0.0,0.015577051788568497
1778599337450446823,2.413446823,-0.005192350596189499,0.0009162971982732415,0.023823726922273636
1778599337461221146,2.4242211460000003,-0.002901607658714056,0.007788525894284248,0.022907428443431854
1778599337471995469,2.434995469,-0.002901607658714056,0.006414080038666725,0.023212861269712448
1778599337482769792,2.445769792,-0.005650499369949102,-0.002901607658714056,0.021380268037319183
1778599337493544115,2.4565441150000003,-0.005192350596189499,-0.003359756199643016,0.011606430634856224
1778599337504318437,2.4673184370000003,-0.0032070400193333626,0.000305432389723137,-0.0015271619195118546
1778599337515092760,2.47809276,-0.0009162971982732415,-0.0102319847792387,-0.010079269297420979
1778599337525867083,2.488867083,0.00045814859913662076,-0.022449281066656113,-0.014966187067329884
1778599337536641458,2.499641458,0.006414080038666725,-0.019242240116000175,-0.011300998739898205
1778599337547415729,2.510415729,0.010079269297420979,-0.012522728182375431,-0.008399390615522861
1778599337558190104,2.521190104,0.009773836471140385,-0.008857538923621178,-0.005192350596189499
1778599337568964375,2.5319643750000003,0.003665188793092966,-0.008246674202382565,-0.0015271619195118546
1778599337579738750,2.5427387500000003,-0.0007635809597559273,-0.012675444595515728,-0.002290742937475443
1778599337590513125,2.5535131250000003,-0.0015271619195118546,-0.006872228812426329,-0.0030543238390237093
1778599337601287396,2.564287396,-0.0,-0.003359756199643016,-0.004428769461810589
1778599337612061771,2.575061771,0.0021380267571657896,0.004123337101191282,-0.007941242307424545
1778599337622836042,2.585836042,0.003665188793092966,0.006872228812426329,-0.01206457894295454
1778599337633610417,2.596610417,0.004428769461810589,0.0032070400193333626,-0.011759147047996521
1778599337644384740,2.60738474,0.0019853105768561363,-0.0102319847792387,-0.009773836471140385
1778599337655159062,2.618159062,0.005650499369949102,-0.008552107028663158,-0.010079269297420979
1778599337665933385,2.6289333850000003,0.013439024798572063,0.003970621153712273,-0.011606430634856224
1778599337676707708,2.639707708,0.0154243353754282,0.002443459117785096,-0.011300998739898205
1778599337687482083,2.650482083,0.012675444595515728,-0.0021380267571657896,-0.010537417605519295
1778599337698256354,2.6612563540000003,0.007330377586185932,-0.001221729558892548,-0.009773836471140385
1778599337709030677,2.672030677,-0.00045814859913662076,-0.008552107028663158,-0.009621120058000088
1778599337719805000,2.682805,-0.0021380267571657896,-0.005650499369949102,-0.013286309316754341
1778599337730579323,2.6935793230000002,-0.001679878099821508,-0.009010255336761475,-0.013286309316754341
1778599337741353646,2.7043536460000004,-0.0,-0.013744457624852657,-0.007330377586185932
1778599337752128021,2.715128021,-0.0009162971982732415,-0.01802051067352295,0.00045814859913662076
1778599337762902396,2.725902396,-0.002443459117785096,-0.016340631991624832,0.006719512399286032
1778599337773676667,2.7366766670000002,-0.003970621153712273,-0.011453714221715927,0.007941242307424545
1778599337784451042,2.7474510420000002,-0.004428769461810589,-0.004886918235570192,0.004276053514331579
1778599337795225365,2.7582253650000004,-0.005803215317428112,0.008246674202382565,-0.000610864779446274
1778599337805999687,2.768999687,-0.009010255336761475,0.010995565913617611,-0.009621120058000088
1778599337816774010,2.77977401,-0.013133592903614044,0.012980876490473747,-0.017715077847242355
1778599337827548333,2.7905483330000003,-0.017867794260382652,0.018325943499803543,-0.017867794260382652
1778599337838322656,2.801322656,-0.01802051067352295,0.030543239787220955,-0.009621120058000088
1778599337849096979,2.812096979,-0.010995565913617611,0.040317077189683914,0.0013744457392022014
1778599337859871302,2.8228713020000002,-0.003359756199643016,0.03451386094093323,0.006719512399286032
1778599337870645625,2.8336456250000004,0.0019853105768561363,0.01588248461484909,0.005803215317428112
1778599337881420000,2.8444200000000004,0.004886918235570192,0.0032070400193333626,-0.0027488914784044027
1778599337892194271,2.8551942710000002,0.003970621153712273,0.005192350596189499,-0.014508038759231567
1778599337902968646,2.8659686460000002,0.001221729558892548,0.004123337101191282,-0.019853105768561363
1778599337913743021,2.8767430210000002,-0.003665188793092966,0.00946840364485979,-0.01893680728971958
1778599337924517344,2.8875173440000004,-0.00946840364485979,0.011759147047996521,-0.014202605932950974
1778599337935291667,2.898291667,-0.016340631991624832,0.008093958720564842,-0.007635809946805239
1778599337946065990,2.90906599,-0.0204639695584774,0.006414080038666725,-0.002290742937475443
1778599337956840312,2.9198403120000003,-0.021227551624178886,0.002901607658714056,0.004581485874950886
1778599337967614635,2.930614635,-0.014660755172371864,0.007330377586185932,0.015577051788568497
1778599337978388958,2.941388958,-0.006566796451807022,0.007330377586185932,0.022907428443431854
1778599337989163333,2.952163333,0.0032070400193333626,-0.004428769461810589,0.027488915249705315
1778599337999937604,2.9629376040000004,0.015577051788568497,-0.0027488914784044027,0.02000582218170166
1778599338010711979,2.9737119790000004,0.024740023538470268,-0.008246674202382565,0.005803215317428112
1778599338021486354,2.9844863540000004,0.02977965772151947,-0.02107483521103859,-0.009315688163042068
1778599338032260625,2.9952606250000002,0.032681263983249664,-0.019242240116000175,-0.014660755172371864
1778599338043035000,3.0060350000000002,0.03130681812763214,-0.013897174037992954,-0.013286309316754341
1778599338053809323,3.0168093230000004,0.023976443335413933,-0.005192350596189499,-0.008552107028663158
1778599338064583646,3.027583646,0.011759147047996521,-0.010690134018659592,-0.0007635809597559273
1778599338075357969,3.038357969,0.0007635809597559273,-0.011453714221715927,0.005039634648710489
1778599338086132292,3.0491322920000004,-0.004428769461810589,0.0027488914784044027,0.00946840364485979
1778599338096906667,3.0599066670000004,-0.009315688163042068,0.0032070400193333626,0.013439024798572063
1778599338107680937,3.070680937,-0.012980876490473747,-0.002443459117785096,0.013133592903614044
1778599338118455312,3.081455312,-0.014966187067329884,-0.002443459117785096,0.010690134018659592
1778599338129229687,3.092229687,-0.009773836471140385,0.009010255336761475,0.005345067009329796
1778599338140004010,3.1030040100000003,-0.005345067009329796,0.005345067009329796,0.001221729558892548
1778599338150778333,3.1137783330000004,-0.002901607658714056,-0.011759147047996521,0.0021380267571657896
1778599338161552656,3.124552656,0.001221729558892548,-0.009315688163042068,0.0021380267571657896
1778599338172326979,3.1353269790000002,0.00045814859913662076,-0.013897174037992954,0.006566796451807022
1778599338183101302,3.1461013020000004,-0.002901607658714056,-0.013133592903614044,0.01359174121171236
1778599338193875625,3.156875625,-0.008093958720564842,-0.010079269297420979,0.015577051788568497
1778599338204650000,3.16765,-0.009315688163042068,0.00045814859913662076,0.017562363296747208
1778599338215424375,3.178424375,-0.009315688163042068,0.009010255336761475,0.021380268037319183
1778599338226198646,3.1891986460000004,-0.00946840364485979,0.001221729558892548,0.023212861269712448
1778599338236973021,3.1999730210000004,-0.007330377586185932,-0.0,0.024434590712189674
1778599338247747344,3.210747344,-0.003970621153712273,-0.006872228812426329,0.0204639695584774
1778599338258521562,3.2215215620000004,0.001221729558892548,-0.01588248461484909,0.010690134018659592
1778599338269296042,3.232296042,0.006108647678047419,-0.011300998739898205,-0.0007635809597559273
1778599338280070312,3.2430703120000004,0.0102319847792387,-0.010690134018659592,-0.010842849500477314
1778599338290844687,3.2538446870000004,0.008857538923621178,-0.02519817277789116,-0.015729768201708794
1778599338301619062,3.2646190620000004,0.010079269297420979,-0.0256563201546669,-0.013286309316754341
1778599338312393333,3.2753933330000002,0.011300998739898205,-0.021227551624178886,-0.001832594396546483
1778599338323167708,3.2861677080000002,0.010079269297420979,-0.020769402384757996,0.006719512399286032
1778599338333942031,3.2969420310000004,0.007024944759905338,-0.017104214057326317,0.0054977829568088055
1778599338344716354,3.307716354,0.005650499369949102,-0.011453714221715927,0.0009162971982732415
1778599338355490677,3.318490677,0.0019853105768561363,-0.013133592903614044,-0.0015271619195118546
1778599338366265000,3.3292650000000004,0.00045814859913662076,-0.0154243353754282,0.00045814859913662076
1778599338377039375,3.3400393750000004,0.0007635809597559273,-0.010079269297420979,0.004581485874950886
1778599338387813750,3.3508137500000004,0.001221729558892548,-0.012980876490473747,0.007024944759905338
1778599338398588073,3.361588073,0.0019853105768561363,-0.014202605932950974,0.008704823441803455
1778599338409362396,3.372362396,0.004123337101191282,-0.012980876490473747,0.010690134018659592
1778599338420136719,3.3831367190000003,0.006872228812426329,-0.010537417605519295,0.010384701192378998
1778599338430911042,3.393911042,0.005803215317428112,-0.007024944759905338,0.008552107028663158
1778599338441685417,3.404685417,0.001221729558892548,-0.005345067009329796,0.010384701192378998
1778599338452459792,3.415459792,-0.001679878099821508,-0.007024944759905338,0.01282816007733345
1778599338463234062,3.4262340620000002,-0.005803215317428112,-0.008246674202382565,0.014660755172371864
1778599338474008437,3.4370084370000002,-0.006414080038666725,-0.004123337101191282,0.018784092739224434
1778599338484782760,3.4477827600000004,-0.007024944759905338,0.001679878099821508,0.021685699000954628
1778599338495557083,3.458557083,-0.008857538923621178,0.0021380267571657896,0.02367101050913334
1778599338506331458,3.469331458,-0.009773836471140385,0.005345067009329796,0.02214384824037552
1778599338517105833,3.480105833,-0.008246674202382565,0.007330377586185932,0.02000582218170166
1778599338527880104,3.4908801040000004,-0.007024944759905338,0.001221729558892548,0.012370011769235134
1778599338538654479,3.5016544790000004,-0.009010255336761475,-0.003665188793092966,0.008246674202382565
1778599338549428802,3.512428802,-0.010537417605519295,-0.002901607658714056,0.012217295356094837
1778599338560203125,3.523203125,-0.012980876490473747,-0.001679878099821508,0.011148282326757908
1778599338570977448,3.5339774480000004,-0.016646064817905426,-0.007024944759905338,0.007941242307424545
1778599338581751771,3.544751771,-0.01511890348047018,0.00045814859913662076,0.0021380267571657896
1778599338592526146,3.555526146,-0.013897174037992954,0.009010255336761475,-0.001832594396546483
1778599338603300521,3.566300521,-0.01740964688360691,0.00946840364485979,-0.002443459117785096
1778599338614074844,3.577074844,-0.022754713892936707,0.005650499369949102,0.0025961752980947495
1778599338624849167,3.5878491670000003,-0.021685699000954628,0.0021380267571657896,0.012217295356094837
1778599338635623490,3.59862349,-0.018631376326084137,0.001221729558892548,0.017256930470466614
1778599338646397812,3.609397812,-0.013133592903614044,-0.003359756199643016,0.019242240116000175
1778599338657172187,3.620172187,-0.008857538923621178,0.003665188793092966,0.021227551624178886
1778599338667946562,3.630946562,-0.005192350596189499,0.0032070400193333626,0.019242240116000175
1778599338678720833,3.6417208330000004,-0.002901607658714056,0.010079269297420979,0.007941242307424545
1778599338689495208,3.6524952080000004,-0.0,0.011453714221715927,-0.0015271619195118546
1778599338700269531,3.663269531,-0.0019853105768561363,0.000305432389723137,-0.008857538923621178
1778599338711043854,3.674043854,-0.002901607658714056,-0.006414080038666725,-0.010537417605519295
1778599338721818229,3.6848182290000002,-0.0027488914784044027,0.005345067009329796,-0.004886918235570192
1778599338732592604,3.6955926040000002,-0.007024944759905338,0.004123337101191282,-0.002443459117785096
1778599338743366927,3.7063669270000004,-0.010995565913617611,0.002443459117785096,-0.0015271619195118546
1778599338754141250,3.71714125,-0.012980876490473747,0.009773836471140385,-0.004886918235570192
1778599338764915573,3.727915573,-0.010537417605519295,0.011300998739898205,-0.008093958720564842
1778599338775689896,3.7386898960000003,-0.008857538923621178,0.00946840364485979,-0.011759147047996521
1778599338786464271,3.7494642710000003,-0.0015271619195118546,0.007330377586185932,-0.014660755172371864
1778599338797238646,3.7602386460000004,0.006872228812426329,0.005803215317428112,-0.009621120058000088
1778599338808012969,3.771012969,0.013133592903614044,0.001221729558892548,-0.008093958720564842
1778599338818787292,3.781787292,0.018631376326084137,0.0007635809597559273,-0.01908952370285988
1778599338829561615,3.7925616150000003,0.019242240116000175,-0.000305432389723137,-0.03329212963581085
1778599338840335937,3.8033359370000004,0.017867794260382652,-0.0027488914784044027,-0.04581485688686371
1778599338851110312,3.8141103120000004,0.01435532234609127,0.001679878099821508,-0.04520399495959282
1778599338861884687,3.8248846870000004,0.0102319847792387,0.0007635809597559273,-0.039858926087617874
1778599338872658958,3.8356589580000002,0.003359756199643016,-0.012522728182375431,-0.03451386094093323
1778599338883433333,3.8464333330000002,-0.0021380267571657896,-0.016340631991624832,-0.02932151034474373
1778599338894207656,3.8572076560000004,-0.007635809946805239,-0.007788525894284248,-0.01908952370285988
1778599338904981979,3.867981979,-0.013133592903614044,-0.004581485874950886,0.0013744457392022014
1778599338915756354,3.878756354,-0.016798781231045723,0.0009162971982732415,0.02214384824037552
1778599338926530729,3.889530729,-0.01588248461484909,0.009010255336761475,0.034666575491428375
1778599338937305000,3.9003050000000004,-0.012675444595515728,0.0019853105768561363,0.03909534588456154
1778599338948079375,3.9110793750000004,-0.005650499369949102,-0.003665188793092966,0.039248060435056686
1778599338958853698,3.921853698,0.002443459117785096,0.002443459117785096,0.03436114266514778
1778599338969627812,3.9326278120000002,0.007788525894284248,-0.0009162971982732415,0.028557928279042244
1778599338980402396,3.943402396,0.010079269297420979,-0.004886918235570192,0.019242240116000175
1778599338991176771,3.954176771,0.0102319847792387,-0.008857538923621178,0.01588248461484909
1778599339001951094,3.9649510940000003,0.009315688163042068,-0.009773836471140385,0.011911863461136818
1778599339012725417,3.975725417,0.005803215317428112,-0.003970621153712273,0.007941242307424545
1778599339023499740,3.98649974,0.003665188793092966,0.007635809946805239,0.0009162971982732415
1778599339034274062,3.9972740620000002,-0.000305432389723137,0.011300998739898205,-0.003512472379952669
1778599339045048437,4.008048437,-0.002901607658714056,0.008093958720564842,-0.004276053514331579
1778599339055822812,4.018822812000001,-0.003665188793092966,0.012522728182375431,-0.003970621153712273
1778599339066597135,4.029597135,-0.003970621153712273,0.011453714221715927,-0.002443459117785096
1778599339077371458,4.040371458,-0.0,0.008552107028663158,-0.004276053514331579
1778599339088145781,4.051145781000001,0.004123337101191282,0.005192350596189499,-0.008399390615522861
1778599339098920104,4.061920104,0.004581485874950886,-0.006414080038666725,-0.009773836471140385
1778599339109694479,4.072694479,0.009315688163042068,-0.0007635809597559273,-0.008399390615522861
1778599339120468854,4.083468854,0.010690134018659592,0.005192350596189499,-0.003665188793092966
1778599339131243177,4.094243177,0.006566796451807022,0.005192350596189499,0.004581485874950886
1778599339142017500,4.105017500000001,-0.000305432389723137,0.007788525894284248,0.01282816007733345
1778599339152791875,4.115791875,-0.005345067009329796,0.005803215317428112,0.010690134018659592
1778599339163566146,4.126566146,-0.006108647678047419,0.0009162971982732415,0.006566796451807022
1778599339174340521,4.1373405210000005,-0.0032070400193333626,-0.002443459117785096,0.003665188793092966
1778599339185114896,4.148114896,0.0032070400193333626,-0.003665188793092966,0.0030543238390237093
1778599339195889219,4.158889219000001,0.008857538923621178,-0.0019853105768561363,0.003665188793092966
1778599339206663542,4.169663542,0.014966187067329884,0.003359756199643016,0.006108647678047419
1778599339217437917,4.180437917,0.012675444595515728,0.002901607658714056,0.009010255336761475
1778599339228212187,4.1912121870000005,0.00946840364485979,0.007635809946805239,0.009926552884280682
1778599339238986562,4.201986562,0.004581485874950886,0.016646064817905426,0.008246674202382565
1778599339249760937,4.2127609370000005,-0.002443459117785096,0.005650499369949102,0.003359756199643016
1778599339260535260,4.22353526,-0.006414080038666725,-0.0019853105768561363,-0.001832594396546483
1778599339271309583,4.234309583,-0.006566796451807022,0.00045814859913662076,-0.007330377586185932
1778599339282083958,4.245083958,-0.006566796451807022,0.0015271619195118546,-0.010079269297420979
1778599339292858333,4.255858333,-0.006872228812426329,-0.002901607658714056,-0.006108647678047419
1778599339303632656,4.2666326560000005,-0.005192350596189499,-0.003970621153712273,0.001679878099821508
1778599339314406979,4.277406979,-0.0015271619195118546,-0.0027488914784044027,0.009010255336761475
1778599339325181302,4.288181302,0.0032070400193333626,-0.00045814859913662076,0.008552107028663158
1778599339335955625,4.2989556250000005,0.003359756199643016,-0.003665188793092966,0.0030543238390237093
1778599339346730000,4.30973,0.002443459117785096,-0.012675444595515728,-0.001832594396546483
1778599339357504375,4.3205043750000005,0.001221729558892548,-0.016340631991624832,-0.0027488914784044027
1778599339368278698,4.331278698,-0.000305432389723137,-0.010537417605519295,0.003359756199643016
1778599339379053021,4.342053021,-0.0009162971982732415,-0.009773836471140385,0.008246674202382565
1778599339389827396,4.352827396,-0.0021380267571657896,-0.0154243353754282,0.008246674202382565
1778599339400601667,4.363601667,-0.0,-0.008857538923621178,0.001832594396546483
1778599339411376094,4.3743760940000005,0.0032070400193333626,-0.004428769461810589,-0.0054977829568088055
1778599339422150417,4.385150417,0.005650499369949102,0.000305432389723137,-0.008552107028663158
1778599339432924740,4.39592474,0.007024944759905338,-0.0007635809597559273,-0.006872228812426329
1778599339443699167,4.406699167,0.007330377586185932,-0.006108647678047419,-0.003512472379952669
1778599339454473437,4.417473437,0.007788525894284248,-0.001221729558892548,0.0021380267571657896
1778599339465247812,4.428247812,0.005345067009329796,0.006872228812426329,0.007024944759905338
1778599339476022135,4.439022135,0.002901607658714056,0.011453714221715927,0.0030543238390237093
1778599339486796458,4.449796458000001,0.00045814859913662076,0.003970621153712273,-0.007941242307424545
1778599339497570833,4.460570833,-0.004428769461810589,0.008246674202382565,-0.018173227086663246
1778599339508345208,4.471345208000001,-0.008857538923621178,0.006872228812426329,-0.025961752980947495
1778599339519119531,4.482119531,-0.017867794260382652,-0.001221729558892548,-0.03649916872382164
1778599339529893854,4.492893854,-0.022296564653515816,-0.0019853105768561363,-0.0409279391169548
1778599339540668229,4.5036682290000005,-0.021227551624178886,0.006566796451807022,-0.04062250629067421
1778599339551442604,4.514442604,-0.01954767294228077,0.007330377586185932,-0.027947064489126205
1778599339562216927,4.525216927000001,-0.014660755172371864,0.008857538923621178,-0.010537417605519295
1778599339572991250,4.53599125,-0.010537417605519295,0.013133592903614044,0.004276053514331579
1778599339583765625,4.546765625,-0.006414080038666725,0.012522728182375431,0.017562363296747208
1778599339594540000,4.55754,-0.003970621153712273,0.010690134018659592,0.019242240116000175
1778599339605314323,4.568314323,-0.001679878099821508,0.0102319847792387,0.019700389355421066
1778599339616088646,4.579088646000001,-0.004428769461810589,0.0032070400193333626,0.026572618633508682
1778599339626863021,4.589863021,-0.003359756199643016,0.0027488914784044027,0.029932374134659767
1778599339637637396,4.600637396000001,-0.000305432389723137,0.008093958720564842,0.02871064469218254
1778599339648411771,4.611411771,0.00045814859913662076,-0.003665188793092966,0.02367101050913334
1778599339659186146,4.622186146000001,0.0015271619195118546,-0.013897174037992954,0.01649334840476513
1778599339669960469,4.632960469,0.005345067009329796,-0.007635809946805239,0.008704823441803455
1778599339680734792,4.643734792,0.008246674202382565,0.001679878099821508,0.003665188793092966
1778599339691509167,4.6545091670000005,0.007330377586185932,-0.0007635809597559273,0.0030543238390237093
1778599339702283542,4.665283542,0.004581485874950886,-0.007024944759905338,0.005803215317428112
1778599339713057865,4.676057865000001,0.006414080038666725,-0.0019853105768561363,0.006719512399286032
1778599339723832187,4.686832187,0.004886918235570192,-0.002443459117785096,0.004886918235570192
1778599339734606562,4.697606562000001,0.0032070400193333626,-0.006566796451807022,0.006566796451807022
1778599339745380937,4.708380937,0.002901607658714056,-0.007330377586185932,0.010995565913617611
1778599339756155260,4.71915526,0.0021380267571657896,-0.005803215317428112,0.013897174037992954
1778599339766929583,4.7299295830000005,0.0009162971982732415,0.000305432389723137,0.012217295356094837
1778599339777703958,4.740703958,-0.0,0.002901607658714056,0.007788525894284248
1778599339788478333,4.7514783330000006,-0.001679878099821508,0.00045814859913662076,0.0030543238390237093
1778599339799252708,4.762252708,-0.001221729558892548,0.0015271619195118546,0.001832594396546483
1778599339810027083,4.773027083000001,-0.0,0.003970621153712273,-0.0010690133785828948
1778599339820801406,4.783801406,0.00045814859913662076,0.0027488914784044027,-0.003512472379952669
1778599339831575729,4.794575729,-0.0,-0.004886918235570192,-0.0015271619195118546
1778599339842350104,4.805350104,0.004123337101191282,-0.005650499369949102,-0.001221729558892548
1778599339853124479,4.816124479,0.006108647678047419,-0.003970621153712273,-0.003665188793092966
1778599339863898802,4.8268988020000005,0.006872228812426329,-0.003359756199643016,-0.009773836471140385
1778599339874673229,4.837673229,0.008857538923621178,-0.001679878099821508,-0.013744457624852657
1778599339885447552,4.8484475520000005,0.009315688163042068,0.003359756199643016,-0.010537417605519295
1778599339896221875,4.859221875,0.006414080038666725,0.004428769461810589,-0.0010690133785828948
1778599339906996250,4.869996250000001,0.003665188793092966,0.008246674202382565,0.009926552884280682
1778599339917770625,4.880770625,0.0015271619195118546,0.004428769461810589,0.011148282326757908
1778599339928544948,4.891544948,-0.0027488914784044027,-0.001679878099821508,0.004886918235570192
1778599339939319271,4.9023192710000005,-0.004123337101191282,-0.0007635809597559273,0.001221729558892548
1778599339950093646,4.913093646,-0.005650499369949102,0.0009162971982732415,-0.0007635809597559273
1778599339960868021,4.9238680210000005,-0.006566796451807022,0.007635809946805239,0.0013744457392022014
1778599339971642396,4.934642396,-0.004581485874950886,0.010995565913617611,0.005345067009329796
1778599339982416771,4.9454167710000005,-0.002443459117785096,0.009773836471140385,0.0102319847792387
1778599339993191094,4.956191094,0.001221729558892548,0.012980876490473747,0.012675444595515728
1778599340003965417,4.966965417,0.001221729558892548,0.011911863461136818,0.01282816007733345
1778599340014739792,4.977739792,0.00045814859913662076,0.006566796451807022,0.011453714221715927
1778599340025514167,4.988514167,0.00045814859913662076,0.007024944759905338,0.006108647678047419
1778599340036288542,4.999288542,0.0015271619195118546,0.009010255336761475,0.000610864779446274
1778599340047062917,5.010062917,0.0019853105768561363,0.003665188793092966,-0.0010690133785828948
1778599340057837240,5.0208372400000005,-0.001679878099821508,-0.013744457624852657,0.001221729558892548
1778599340068611562,5.031611562,-0.00045814859913662076,-0.01588248461484909,0.0025961752980947495
1778599340079385937,5.042385937000001,0.003665188793092966,-0.010079269297420979,0.001679878099821508
1778599340090160312,5.053160312,0.005192350596189499,-0.016340631991624832,-0.0027488914784044027
1778599340100934687,5.063934687000001,0.007635809946805239,-0.010079269297420979,-0.0032070400193333626
1778599340111709062,5.074709062,0.00946840364485979,-0.005803215317428112,-0.0019853105768561363
1778599340122483385,5.085483385000001,0.00946840364485979,-0.002443459117785096,0.001832594396546483
1778599340133257708,5.096257708,0.008093958720564842,-0.007635809946805239,0.0062613640911877155
1778599340144032135,5.107032135000001,0.009773836471140385,-0.010690134018659592,0.006566796451807022
1778599340154806458,5.1178064580000004,0.012980876490473747,-0.014202605932950974,0.0013744457392022014
1778599340165580833,5.128580833,0.01511890348047018,-0.009315688163042068,-0.004276053514331579
1778599340176355208,5.1393552080000005,0.014660755172371864,-0.0015271619195118546,-0.007635809946805239
1778599340187129531,5.150129531,0.008857538923621178,-0.006414080038666725,-0.005955931730568409
1778599340197903958,5.1609039580000005,0.003665188793092966,-0.009773836471140385,-0.006719512399286032
1778599340208678281,5.171678281,0.000305432389723137,-0.005192350596189499,-0.006414080038666725
1778599340219452604,5.182452604000001,-0.004428769461810589,-0.005650499369949102,-0.004428769461810589
1778599340230226979,5.193226979,-0.004428769461810589,-0.005650499369949102,-0.007941242307424545
1778599340241001354,5.204001354000001,-0.0027488914784044027,-0.007024944759905338,-0.008857538923621178
1778599340251775729,5.214775729,-0.0021380267571657896,-0.013744457624852657,-0.0019853105768561363
1778599340262550104,5.225550104000001,0.001679878099821508,-0.012675444595515728,0.008704823441803455
1778599340273324427,5.2363244270000004,0.004123337101191282,-0.007788525894284248,0.01893680728971958
1778599340284098750,5.24709875,0.001679878099821508,-0.002901607658714056,0.024434590712189674
1778599340294873125,5.257873125000001,-0.003359756199643016,-0.0007635809597559273,0.0256563201546669
1778599340305647500,5.2686475,-0.007788525894284248,-0.003970621153712273,0.023212861269712448
1778599340316421875,5.279421875000001,-0.011911863461136818,-0.008552107028663158,0.021227551624178886
1778599340327196250,5.29019625,-0.010537417605519295,-0.004428769461810589,0.021227551624178886
1778599340337970573,5.300970573000001,-0.008093958720564842,-0.0021380267571657896,0.017715077847242355
1778599340348744896,5.311744896,-0.004123337101191282,0.005192350596189499,0.01588248461484909
1778599340359519323,5.322519323000001,-0.002901607658714056,0.006414080038666725,0.011148282326757908
1778599340370293646,5.333293646,-0.002443459117785096,0.006414080038666725,0.005803215317428112
1778599340381068073,5.344068073000001,-0.004123337101191282,0.008093958720564842,0.0025961752980947495
1778599340391842396,5.3548423960000004,-0.006414080038666725,-0.0032070400193333626,0.003359756199643016
1778599340402616771,5.365616771,-0.003359756199643016,-0.003970621153712273,0.007941242307424545
1778599340413391146,5.3763911460000005,0.0015271619195118546,0.004581485874950886,0.013133592903614044
1778599340424165469,5.387165469,0.003359756199643016,0.005345067009329796,0.016035201027989388
1778599340434939896,5.3979398960000005,0.0019853105768561363,-0.004581485874950886,0.009926552884280682
1778599340445714219,5.408714219,0.004428769461810589,-0.011911863461136818,0.0030543238390237093
1778599340456488542,5.419488542000001,0.009010255336761475,-0.007635809946805239,-0.006872228812426329
1778599340467262917,5.430262917,0.013439024798572063,-0.005650499369949102,-0.010842849500477314
1778599340478037292,5.441037292000001,0.016187917441129684,-0.003359756199643016,-0.011606430634856224
1778599340488811667,5.451811667,0.019242240116000175,0.0019853105768561363,-0.017104214057326317
1778599340499586042,5.462586042000001,0.020769402384757996,-0.000305432389723137,-0.024740023538470268
1778599340510360417,5.473360417,0.0256563201546669,-0.005192350596189499,-0.03176496922969818
1778599340521134792,5.484134792000001,0.03222311660647392,-0.001221729558892548,-0.03405570983886719
1778599340531909115,5.4949091150000005,0.03695731982588768,0.005192350596189499,-0.022296564653515816
1778599340542683437,5.505683437,0.03543015569448471,0.010690134018659592,-0.0032070400193333626
1778599340553457812,5.5164578120000005,0.022907428443431854,0.013744457624852657,0.009926552884280682
1778599340564232187,5.527232187,0.008552107028663158,0.01435532234609127,0.015271619893610477
1778599340575006562,5.5380065620000005,-0.0027488914784044027,0.006414080038666725,0.013897174037992954
1778599340585780937,5.548780937,-0.007788525894284248,0.005192350596189499,0.00946840364485979
1778599340596555260,5.559555260000001,-0.006108647678047419,0.009010255336761475,0.0038179049734026194
1778599340607329687,5.570329687,-0.004581485874950886,0.008857538923621178,-0.004734201822429895
1778599340618104010,5.581104010000001,-0.006566796451807022,-0.006108647678047419,-0.01588248461484909
1778599340628878333,5.591878333,-0.004581485874950886,-0.012675444595515728,-0.02153298258781433
1778599340639652708,5.602652708,-0.000305432389723137,-0.0032070400193333626,-0.019394956529140472
1778599340650427083,5.613427083,0.00045814859913662076,-0.008093958720564842,-0.01206457894295454
1778599340661201406,5.624201406,-0.0015271619195118546,-0.020311253145337105,-0.0007635809597559273
1778599340671975833,5.634975833,0.0027488914784044027,-0.012675444595515728,0.007330377586185932
1778599340682750208,5.645750208,0.005345067009329796,-0.00946840364485979,0.010995565913617611
1778599340693524583,5.656524583,0.006872228812426329,-0.005345067009329796,0.016340631991624832
1778599340704298906,5.667298906,0.007330377586185932,-0.004886918235570192,0.01588248461484909
1778599340715073229,5.678073229000001,0.004428769461810589,-0.012980876490473747,0.008552107028663158
1778599340725847656,5.688847656,0.0019853105768561363,-0.015577051788568497,-0.0015271619195118546
1778599340736621979,5.699621979000001,0.003359756199643016,-0.006566796451807022,-0.007941242307424545
1778599340747396354,5.710396354,0.004428769461810589,0.003359756199643016,-0.012217295356094837
1778599340758170729,5.721170729000001,0.004886918235570192,0.006566796451807022,-0.016646064817905426
1778599340768945104,5.731945104,0.007330377586185932,0.0021380267571657896,-0.023212861269712448
1778599340779719479,5.742719479000001,0.0102319847792387,0.0009162971982732415,-0.02306014485657215
1778599340790493802,5.753493802,0.01435532234609127,-0.0015271619195118546,-0.017867794260382652
1778599340801268229,5.764268229000001,0.017867794260382652,-0.004123337101191282,-0.011606430634856224
1778599340812042552,5.775042552,0.018631376326084137,-0.0,-0.004428769461810589
1778599340822816875,5.785816875,0.0154243353754282,-0.001221729558892548,0.000610864779446274
1778599340833591302,5.796591302,0.008246674202382565,-0.002443459117785096,-0.000305432389723137
1778599340844365625,5.807365625,0.002901607658714056,0.005345067009329796,-0.006414080038666725
1778599340855140000,5.8181400000000005,0.00045814859913662076,0.006566796451807022,-0.007330377586185932
1778599340865914375,5.828914375,-0.002443459117785096,-0.00045814859913662076,-0.002443459117785096
1778599340876688750,5.8396887500000005,-0.0009162971982732415,0.0007635809597559273,-0.000610864779446274
1778599340887463125,5.850463125,0.0015271619195118546,-0.0015271619195118546,-0.003665188793092966
1778599340898237448,5.861237448000001,0.002443459117785096,-0.009773836471140385,-0.0
1778599340909011771,5.872011771,0.003359756199643016,-0.01511890348047018,0.006566796451807022
1778599340919786198,5.882786198000001,0.005345067009329796,-0.005803215317428112,0.013439024798572063
1778599340930560521,5.893560521,0.004123337101191282,0.0021380267571657896,0.017104214057326317
1778599340941334896,5.904334896,-0.000305432389723137,-0.010079269297420979,0.016340631991624832
1778599340952109271,5.915109271,0.001221729558892548,-0.010537417605519295,0.01511890348047018
1778599340962883646,5.925883646,0.005192350596189499,-0.003970621153712273,0.0102319847792387
1778599340973658021,5.936658021,0.010079269297420979,-0.0032070400193333626,0.001832594396546483
1778599340984432344,5.947432344,0.013744457624852657,-0.0007635809597559273,-0.003512472379952669
1778599340995206771,5.958206771,0.010995565913617611,0.0007635809597559273,-0.009315688163042068
1778599341005981094,5.968981094,0.005345067009329796,0.0021380267571657896,-0.010537417605519295
1778599341016755417,5.979755417000001,-0.003359756199643016,0.003359756199643016,-0.011759147047996521
1778599341027529792,5.990529792,-0.011453714221715927,-0.00045814859913662076,-0.009621120058000088
1778599341038304167,6.001304167000001,-0.01511890348047018,0.0021380267571657896,-0.011300998739898205
1778599341049078542,6.012078542,-0.01588248461484909,0.001221729558892548,-0.0030543238390237093
1778599341059852917,6.022852917000001,-0.01511890348047018,-0.007024944759905338,-0.0015271619195118546
1778599341070627292,6.033627292,-0.00946840364485979,0.005345067009329796,-0.0
1778599341081401667,6.044401667000001,-0.005192350596189499,0.009010255336761475,-0.002443459117785096
1778599341092175990,6.05517599,-0.002901607658714056,0.004123337101191282,-0.006872228812426329
1778599341102950312,6.065950312,-0.00045814859913662076,0.0027488914784044027,-0.007635809946805239
1778599341113724740,6.07672474,0.0021380267571657896,0.006566796451807022,-0.005192350596189499
1778599341124499062,6.087499062,0.0015271619195118546,0.010690134018659592,-0.000305432389723137
1778599341135273437,6.0982734370000005,-0.0021380267571657896,0.009010255336761475,0.0021380267571657896
1778599341146047812,6.109047812,-0.005650499369949102,0.005345067009329796,0.003359756199643016
1778599341156822187,6.1198221870000005,-0.008093958720564842,0.005192350596189499,0.0030543238390237093
1778599341167596562,6.130596562,-0.0102319847792387,0.008246674202382565,0.005039634648710489
1778599341178370937,6.1413709370000005,-0.011759147047996521,0.010995565913617611,0.006108647678047419
1778599341189145312,6.152145312,-0.010995565913617611,0.010690134018659592,0.007330377586185932
1778599341199919635,6.162919635000001,-0.009010255336761475,0.010690134018659592,0.0062613640911877155
1778599341210694062,6.173694062,-0.004123337101191282,0.010690134018659592,0.004886918235570192
1778599341221468385,6.184468385000001,-0.0009162971982732415,0.012217295356094837,0.006719512399286032
1778599341232242708,6.195242708,0.0007635809597559273,0.004886918235570192,0.007941242307424545
1778599341243017083,6.206017083000001,0.000305432389723137,-0.0027488914784044027,0.009162971749901772
1778599341253791458,6.216791458,-0.0032070400193333626,-0.007635809946805239,0.016798781231045723
1778599341264565833,6.227565833000001,-0.006872228812426329,-0.004886918235570192,0.02000582218170166
1778599341275340208,6.238340208,-0.012980876490473747,-0.005345067009329796,0.01588248461484909
1778599341286114583,6.249114583000001,-0.012675444595515728,-0.0009162971982732415,0.011911863461136818
1778599341296888958,6.259888958,-0.010537417605519295,0.006414080038666725,0.009162971749901772
1778599341307663281,6.270663281,-0.006108647678047419,0.004581485874950886,0.007941242307424545
1778599341318437708,6.281437708,-0.006566796451807022,-0.006414080038666725,0.007024944759905338
1778599341329212031,6.292212031,-0.004581485874950886,-0.006414080038666725,0.005039634648710489
1778599341339986354,6.302986354000001,-0.0007635809597559273,0.0007635809597559273,0.001679878099821508
1778599341350760729,6.313760729,0.0015271619195118546,-0.0027488914784044027,-0.0010690133785828948
1778599341361535104,6.324535104000001,0.002443459117785096,0.0009162971982732415,-0.0030543238390237093
1778599341372309479,6.335309479,0.00045814859913662076,0.008093958720564842,-0.004428769461810589
1778599341383083854,6.346083854000001,-0.005192350596189499,0.006108647678047419,-0.001832594396546483
1778599341393858229,6.356858229,-0.010690134018659592,0.0027488914784044027,0.0025961752980947495
1778599341404632604,6.367632604000001,-0.013439024798572063,0.001221729558892548,0.005803215317428112
1778599341415406979,6.378406979,-0.010079269297420979,0.007024944759905338,0.011606430634856224
1778599341426181354,6.389181354000001,-0.007024944759905338,0.009315688163042068,0.013439024798572063
1778599341436955729,6.399955729,-0.010537417605519295,0.008552107028663158,0.016798781231045723
1778599341447730104,6.410730104000001,-0.012980876490473747,0.011911863461136818,0.012370011769235134
1778599341458504427,6.421504427,-0.015577051788568497,0.0102319847792387,0.007330377586185932
1778599341469278854,6.432278854000001,-0.017104214057326317,0.0027488914784044027,0.00045814859913662076
1778599341480053177,6.443053177,-0.016187917441129684,0.004428769461810589,-0.003665188793092966
1778599341490827604,6.453827604000001,-0.016340631991624832,0.0154243353754282,-0.003665188793092966
1778599341501601927,6.464601927,-0.017562363296747208,0.02153298258781433,-0.001221729558892548
1778599341512376354,6.475376354000001,-0.016187917441129684,0.02718348242342472,0.0025961752980947495
1778599341523150677,6.486150677,-0.018325943499803543,0.03130681812763214,0.009010255336761475
1778599341533925104,6.496925104000001,-0.023212861269712448,0.026878049597144127,0.009926552884280682
1778599341544699427,6.507699427,-0.024740023538470268,0.028557928279042244,0.0013744457392022014
1778599341555473750,6.51847375,-0.028863361105322838,0.024740023538470268,-0.0019853105768561363
1778599341566248177,6.529248177,-0.03130681812763214,0.011300998739898205,-0.009773836471140385
1778599341577022604,6.540022604000001,-0.024740023538470268,0.012217295356094837,-0.0206166859716177
1778599341587796927,6.550796927,-0.018631376326084137,0.010690134018659592,-0.022754713892936707
1778599341598571354,6.561571354000001,-0.014966187067329884,0.004581485874950886,-0.018173227086663246
1778599341609345677,6.572345677,-0.010079269297420979,-0.001679878099821508,-0.013744457624852657
1778599341620120104,6.583120104000001,-0.005345067009329796,-0.004428769461810589,-0.007941242307424545
1778599341630894427,6.593894427,-0.004123337101191282,-0.002443459117785096,-0.010537417605519295
1778599341641668854,6.604668854000001,-0.005650499369949102,-0.00045814859913662076,-0.013439024798572063
1778599341652443229,6.615443229,-0.006566796451807022,0.000305432389723137,-0.015729768201708794
1778599341663217604,6.626217604000001,-0.007635809946805239,-0.007330377586185932,-0.02306014485657215
1778599341673991979,6.636991979,-0.010079269297420979,-0.024892739951610565,-0.0154243353754282
1778599341684766354,6.647766354000001,-0.006566796451807022,-0.023976443335413933,-0.014966187067329884
1778599341695540729,6.658540729,0.000305432389723137,-0.01802051067352295,-0.019853105768561363
1778599341706315104,6.669315104000001,0.006108647678047419,-0.01802051067352295,-0.02260199747979641
1778599341717089479,6.680089479,0.007330377586185932,-0.023212861269712448,-0.027488915249705315
1778599341727863854,6.690863854000001,0.007330377586185932,-0.04230238497257233,-0.03848448023200035
1778599341738638229,6.701638229,0.012980876490473747,-0.04276053607463837,-0.04306596517562866
1778599341749412604,6.712412604000001,0.015577051788568497,-0.03787361457943916,-0.04153880476951599
1778599341760186979,6.723186979,0.014202605932950974,-0.03756818547844887,-0.04214967042207718
1778599341770961354,6.733961354000001,0.010079269297420979,-0.032681263983249664,-0.047036588191986084
1778599341781735677,6.744735677,0.005192350596189499,-0.028863361105322838,-0.047952886670827866
1778599341792510208,6.7555102080000005,0.001221729558892548,-0.02779434807598591,-0.045967575162649155
1778599341803284583,6.766284583,-0.002443459117785096,-0.024434590712189674,-0.04627300798892975
1778599341814058958,6.7770589580000005,-0.008093958720564842,-0.031001387163996696,-0.04764745384454727
1778599341824833333,6.787833333,-0.008246674202382565,-0.023518294095993042,-0.05604684352874756
1778599341835607708,6.7986077080000005,-0.007635809946805239,-0.0102319847792387,-0.061850059777498245
1778599341846382083,6.809382083,-0.005345067009329796,-0.010537417605519295,-0.06673697382211685
1778599341857156458,6.8201564580000005,-0.005345067009329796,-0.021991131827235222,-0.0694858655333519
1778599341867930833,6.830930833,-0.0027488914784044027,-0.026419902220368385,-0.06994401663541794
1778599341878705208,6.8417052080000005,0.000305432389723137,-0.02412915788590908,-0.06795870512723923
1778599341889479635,6.852479635000001,0.003970621153712273,-0.016798781231045723,-0.07070759683847427
1778599341900254062,6.863254062,0.0027488914784044027,-0.026419902220368385,-0.08002328872680664
1778599341911028437,6.874028437000001,-0.001221729558892548,-0.031001387163996696,-0.0977383628487587
1778599341921802812,6.884802812,0.0032070400193333626,-0.007635809946805239,-0.11026109009981155
1778599341932577187,6.895577187000001,0.0007635809597559273,-0.016187917441129684,-0.1282816082239151
1778599341943351562,6.906351562,-0.00045814859913662076,-0.03390299528837204,-0.13713914155960083
1778599341954125937,6.917125937000001,-0.001221729558892548,-0.036651886999607086,-0.14080433547496796
1778599341964900312,6.927900312,0.002443459117785096,-0.023518294095993042,-0.14721840620040894
1778599341975674740,6.938674740000001,0.006566796451807022,-0.013897174037992954,-0.15088360011577606
1778599341986449062,6.949449062,0.008093958720564842,-0.009010255336761475,-0.15699224174022675
1778599341997223490,6.960223490000001,0.011759147047996521,-0.007788525894284248,-0.1571449637413025
1778599342007997917,6.970997917,0.012217295356094837,-0.026572618633508682,-0.15500694513320923
1778599342018772292,6.9817722920000005,0.0032070400193333626,-0.04566214233636856,-0.1484401375055313
1778599342029546667,6.992546667,0.001679878099821508,-0.045967575162649155,-0.14202606678009033
1778599342040321042,7.0033210420000005,0.003359756199643016,-0.0386371985077858,-0.1337793916463852
1778599342051095417,7.014095417,0.0007635809597559273,-0.03497200831770897,-0.13255766034126282
1778599342061869844,7.024869844,0.0009162971982732415,-0.0204639695584774,-0.12690715491771698
1778599342072644271,7.035644271000001,-0.0009162971982732415,-0.004886918235570192,-0.13179408013820648
1778599342083418594,7.046418594,-0.006872228812426329,-0.0009162971982732415,-0.13072505593299866
1778599342094193021,7.057193021000001,-0.012675444595515728,-0.0102319847792387,-0.13393209874629974
1778599342104967396,7.067967396,-0.0154243353754282,-0.0204639695584774,-0.13194678723812103
1778599342115741771,7.078741771000001,-0.01954767294228077,-0.021227551624178886,-0.1285870373249054
1778599342126516146,7.089516146,-0.021227551624178886,-0.009773836471140385,-0.1233946830034256
1778599342137290625,7.100290625,-0.024740023538470268,0.0007635809597559273,-0.12324196845293045
1778599342148064948,7.111064948,-0.02519817277789116,-0.0154243353754282,-0.12583814561367035
1778599342158839375,7.121839375,-0.023212861269712448,-0.013897174037992954,-0.1204930767416954
1778599342169613750,7.132613750000001,-0.018631376326084137,-0.007024944759905338,-0.1156061589717865
1778599342180388125,7.143388125,-0.013439024798572063,-0.00045814859913662076,-0.11636973917484283
1778599342191162500,7.154162500000001,-0.008857538923621178,0.007330377586185932,-0.1156061589717865
1778599342201936875,7.164936875,-0.007024944759905338,0.00946840364485979,-0.12125665694475174
1778599342212711302,7.175711302000001,-0.007788525894284248,0.016646064817905426,-0.12812888622283936
1778599342223485729,7.186485729,-0.0102319847792387,0.01588248461484909,-0.13744457066059113
1778599342234260104,7.197260104000001,-0.010537417605519295,-0.006414080038666725,-0.13759729266166687
1778599342245034479,7.208034479,-0.010690134018659592,-0.003665188793092966,-0.1461493968963623
1778599342255808854,7.218808854000001,-0.007024944759905338,0.007024944759905338,-0.16126830875873566
1778599342266583229,7.229583229,-0.007330377586185932,0.016798781231045723,-0.16966769099235535
1778599342277357656,7.2403576560000005,-0.012675444595515728,0.023212861269712448,-0.1672242283821106
1778599342288132083,7.251132083000001,-0.01908952370285988,0.0386371985077858,-0.16737695038318634
1778599342298906458,7.261906458,-0.022754713892936707,0.03940077871084213,-0.16615521907806396
1778599342309680833,7.272680833000001,-0.028099779039621353,0.01802051067352295,-0.1649334877729416
1778599342320455208,7.283455208,-0.034666575491428375,-0.004581485874950886,-0.1669187992811203
1778599342331229583,7.294229583000001,-0.03222311660647392,0.005345067009329796,-0.16737695038318634
1778599342342004010,7.30500401,-0.034208428114652634,0.029626941308379173,-0.17348559200763702
1778599342352778437,7.3157784370000005,-0.035735588520765305,0.029626941308379173,-0.18280129134655
1778599342363552812,7.326552812,-0.035735588520765305,0.012675444595515728,-0.17134757339954376
1778599342374327187,7.3373271870000005,-0.028863361105322838,0.009773836471140385,-0.15057817101478577
1778599342385101562,7.348101562,-0.02764163166284561,0.01908952370285988,-0.13179408013820648
1778599342395875937,7.3588759370000005,-0.02367101050913334,0.029016077518463135,-0.11346813291311264
1778599342406650365,7.369650365,-0.027336198836565018,0.05345066636800766,-0.09896009415388107
1778599342417424792,7.380424792,-0.02779434807598591,0.07605266571044922,-0.09590577334165573
1778599342428199167,7.391199167000001,-0.02611446939408779,0.09285144507884979,-0.08979712426662445
1778599342438973542,7.401973542,-0.02718348242342472,0.08384118974208832,-0.08368847519159317
1778599342449747917,7.412747917000001,-0.03329212963581085,0.0334448479115963,-0.08048143237829208
1778599342460522292,7.423522292,-0.034666575491428375,0.003665188793092966,-0.0850629210472107
1778599342471296719,7.434296719000001,-0.03497200831770897,-0.005345067009329796,-0.09682206809520721
1778599342482071146,7.445071146,-0.03329212963581085,-0.007635809946805239,-0.11102467030286789
1778599342492845521,7.4558455210000005,-0.02611446939408779,0.0015271619195118546,-0.12400554865598679
1778599342503619896,7.466619896,-0.03222311660647392,-0.016187917441129684,-0.14401137828826904
1778599342514394271,7.4773942710000005,-0.030085090547800064,-0.015577051788568497,-0.16157373785972595
1778599342525168646,7.488168646,-0.035124726593494415,-0.013133592903614044,-0.18280129134655
1778599342535943073,7.498943073,-0.04153880476951599,-0.035124726593494415,-0.20021092891693115
1778599342546717500,7.509717500000001,-0.05253437161445618,-0.04810560122132301,-0.20830489695072174
1778599342557491875,7.520491875,-0.061850059777498245,-0.04276053607463837,-0.21975859999656677
1778599342568266250,7.531266250000001,-0.06276635825634003,-0.029626941308379173,-0.2412915825843811
1778599342579040625,7.542040625,-0.06352993845939636,-0.023976443335413933,-0.2779434621334076
1778599342589815000,7.552815000000001,-0.06597339361906052,-0.03390299528837204,-0.31154105067253113
1778599342600589427,7.563589427,-0.07284562289714813,-0.06322450190782547,-0.33505934476852417
1778599342611363854,7.5743638540000005,-0.08460476994514465,-0.10384701192378998,-0.32971426844596863
1778599342622138229,7.585138229000001,-0.08552107214927673,-0.09162971377372742,-0.310166597366333
1778599342632912604,7.5959126040000005,-0.0772743970155716,-0.05177079141139984,-0.29565855860710144
1778599342643686979,7.606686979000001,-0.07284562289714813,-0.012522728182375431,-0.29077163338661194
1778599342654461354,7.6174613540000005,-0.07162389904260635,-0.01802051067352295,-0.29886558651924133
1778599342665235781,7.628235781000001,-0.07131846249103546,-0.03955349326133728,-0.304974228143692
1778599342676010208,7.639010208,-0.06551524996757507,-0.034208428114652634,-0.31031930446624756
1778599342686784583,7.649784583000001,-0.060781046748161316,-0.024892739951610565,-0.3130682110786438
1778599342697558958,7.660558958,-0.060781046748161316,-0.018325943499803543,-0.31383177638053894
1778599342708333385,7.6713333850000005,-0.05222893878817558,-0.006414080038666725,-0.31031930446624756
1778599342719107708,7.682107708,-0.04108065739274025,0.032681263983249664,-0.30894485116004944
1778599342729882135,7.6928821350000005,-0.02779434807598591,0.059864748269319534,-0.3174969553947449
1778599342740656562,7.703656562000001,-0.024892739951610565,0.022754713892936707,-0.33047783374786377
1778599342751430937,7.714430937,-0.030085090547800064,-0.03711003437638283,-0.34636032581329346
1778599342762205312,7.725205312000001,-0.021227551624178886,-0.07009673118591309,-0.36163195967674255
1778599342772979740,7.73597974,-0.0102319847792387,-0.06551524996757507,-0.37140578031539917
1778599342783754062,7.746754062000001,-0.012522728182375431,-0.060781046748161316,-0.3675878942012787
1778599342794528542,7.757528542,-0.018784092739224434,-0.029626941308379173,-0.3659079968929291
1778599342805302917,7.768302917000001,-0.02153298258781433,-0.008246674202382565,-0.3773617148399353
1778599342816077292,7.779077292,-0.024892739951610565,-0.026419902220368385,-0.38591381907463074
1778599342826851667,7.789851667000001,-0.03222311660647392,-0.07009673118591309,-0.3819431960582733
1778599342837626042,7.800626042,-0.038789913058280945,-0.08521563559770584,-0.36163195967674255
1778599342848400417,7.811400417000001,-0.061391908675432205,-0.10705405473709106,-0.34697118401527405
1778599342859174844,7.822174844,-0.05100720748305321,-0.10461059212684631,-0.33108872175216675
1778599342869949271,7.832949271,-0.02977965772151947,-0.01908952370285988,-0.3127627670764923
1778599342880723646,7.843723646000001,-0.019242240116000175,0.021991131827235222,-0.3029889166355133
1778599342891498021,7.854498021,-0.028099779039621353,0.004886918235570192,-0.2952004075050354
1778599342902272396,7.865272396000001,-0.03375028073787689,-0.012980876490473747,-0.27687445282936096
1778599342913046771,7.876046771,-0.04199695214629173,-0.046883873641490936,-0.2461785078048706
1778599342923821198,7.886821198000001,-0.04566214233636856,-0.04199695214629173,-0.2084576040506363
1778599342934595625,7.897595625,-0.04734202101826668,-0.028557928279042244,-0.17776164412498474
1778599342945370000,7.908370000000001,-0.04841103404760361,0.008246674202382565,-0.14401137828826904
1778599342956144375,7.919144375,-0.04199695214629173,0.08842267841100693,-0.13988803327083588
1778599342966918750,7.929918750000001,-0.044898562133312225,0.12705987691879272,-0.15378521382808685
1778599342977693229,7.940693229000001,-0.049632761627435684,0.10919208079576492,-0.16126830875873566
1778599342988467552,7.951467552,-0.05299251899123192,0.07483093440532684,-0.14813470840454102
1778599342999241979,7.962241979000001,-0.05833758786320686,0.08155044913291931,-0.1484401375055313
1778599343010016354,7.973016354,-0.06322450190782547,0.09819651395082474,-0.15668681263923645
1778599343020790729,7.983790729000001,-0.07376192510128021,0.07528908550739288,-0.1539379209280014
1778599343031565104,7.994565104,-0.09086613357067108,0.05299251899123192,-0.1484401375055313
1778599343042339479,8.005339479,-0.10109812021255493,0.07528908550739288,-0.16768237948417664
1778599343053113906,8.016113906000001,-0.11239911615848541,0.07895427197217941,-0.20891575515270233
1778599343063888333,8.026888333,-0.12018764764070511,0.025350889191031456,-0.22663083672523499
1778599343074662708,8.037662708000001,-0.1383608728647232,-0.018325943499803543,-0.22388194501399994
1778599343085437083,8.048437083000001,-0.15806126594543457,-0.04718930274248123,-0.2214384824037552
1778599343096211458,8.059211458,-0.16768237948417664,-0.026878049597144127,-0.23044873774051666
1778599343106985833,8.069985833,-0.168904110789299,-0.011300998739898205,-0.25045454502105713
1778599343117760260,8.08076026,-0.16416990756988525,-0.04734202101826668,-0.2730565667152405
1778599343128534687,8.091534687000001,-0.16340632736682892,-0.08384118974208832,-0.27366742491722107
1778599343139309062,8.102309062,-0.1617264449596405,-0.04245510324835777,-0.26939135789871216
1778599343150083333,8.113083333,-0.20189081132411957,0.17226386070251465,-0.30772313475608826
1778599343160857812,8.123857812,-0.19761475920677185,0.2770271897315979,-0.32070401310920715
1778599343171632187,8.134632187000001,-0.1957821547985077,-0.009773836471140385,-0.26419901847839355
1778599343182406562,8.145406562,-0.2309068888425827,0.015577051788568497,-0.3017672002315521
1778599343193181042,8.156181042,-0.22876885533332825,0.0027488914784044027,-0.30894485116004944
1778599343203955365,8.166955365,-0.22754712402820587,-0.046425722539424896,-0.3098611533641815
1778599343214729792,8.177729792000001,-0.22189663350582123,-0.09682206809520721,-0.3130682110786438
1778599343225504167,8.188504167000001,-0.21059563755989075,-0.09407317638397217,-0.3016144931316376
1778599343236278542,8.199278542,-0.1951712965965271,-0.07254019379615784,-0.3000873327255249
1778599343247052917,8.210052917,-0.18127411603927612,-0.07574722915887833,-0.2816086709499359
1778599343257827292,8.220827292000001,-0.17516547441482544,-0.10048725455999374,-0.2663370370864868
1778599343268601719,8.231601719,-0.17073670029640198,-0.10720676928758621,-0.25473061203956604
1778599343279376146,8.242376146,-0.16081015765666962,-0.07238747924566269,-0.24755294620990753
1778599343290150521,8.253150521,-0.14172062277793884,-0.04367683082818985,-0.23777911067008972
1778599343300924896,8.263924896,-0.12095122784376144,-0.01802051067352295,-0.23197589814662933
1778599343311699271,8.274699271000001,-0.09376774728298187,0.02932151034474373,-0.22876885533332825
1778599343322473646,8.285473646,-0.07574722915887833,0.024892739951610565,-0.24434591829776764
1778599343333248073,8.296248073000001,-0.06872228533029556,-0.022449281066656113,-0.2536616027355194
1778599343344022500,8.3070225,-0.05742128938436508,-0.05497783049941063,-0.2657261788845062
1778599343354796823,8.317796823,-0.051618073135614395,-0.10949750989675522,-0.2730565667152405
1778599343365571250,8.328571250000001,-0.05283980444073677,-0.15806126594543457,-0.2585485279560089
1778599343376345625,8.339345625,-0.04520399495959282,-0.15806126594543457,-0.24052800238132477
1778599343387120000,8.35012,-0.0412333719432354,-0.15592323243618011,-0.22586725652217865
1778599343397894427,8.360894427,-0.047952886670827866,-0.1536324918270111,-0.21578797698020935
1778599343408668854,8.371668854000001,-0.056199558079242706,-0.13958260416984558,-0.22189663350582123
1778599343419443177,8.382443177,-0.06566796451807022,-0.12095122784376144,-0.2315177470445633
1778599343430217604,8.393217604,-0.06750056147575378,-0.11285726726055145,-0.2260199636220932
1778599343440991979,8.403991979,-0.06444623321294785,-0.11575887352228165,-0.20433427393436432
1778599343451766354,8.414766354000001,-0.0772743970155716,-0.08949168771505356,-0.18890993297100067
1778599343462540781,8.425540781,-0.018784092739224434,-0.05711585655808449,-0.17776164412498474
1778599343473315208,8.436315208,-0.00946840364485979,-0.03176496922969818,-0.16600249707698822
1778599343484089583,8.447089583,0.012217295356094837,-0.04917461425065994,-0.16187916696071625
1778599343494863958,8.457863958,0.0256563201546669,-0.047952886670827866,-0.15012001991271973
1778599343505638333,8.468638333000001,0.02977965772151947,-0.0204639695584774,-0.11957678198814392
1778599343516412708,8.479412708,0.03145953640341759,0.03543015569448471,-0.10140355676412582
1778599343527187187,8.490187187,0.025961752980947495,0.05589412897825241,-0.09101885557174683
1778599343537961562,8.500961562,0.017104214057326317,0.04108065739274025,-0.0850629210472107
1778599343548735937,8.511735937000001,0.006566796451807022,0.01740964688360691,-0.07452550530433655
1778599343559510312,8.522510312,-0.001221729558892548,-0.012522728182375431,-0.06719512492418289
1778599343570284740,8.533284740000001,0.00045814859913662076,-0.016340631991624832,-0.07635809481143951
1778599343581059167,8.544059167,0.003665188793092966,-0.017562363296747208,-0.09162971377372742
1778599343591833542,8.554833542,0.0102319847792387,-0.005650499369949102,-0.12125665694475174
1778599343602607917,8.565607917000001,0.014202605932950974,-0.006566796451807022,-0.14737112820148468
1778599343613382344,8.576382344,0.008552107028663158,-0.0383317656815052,-0.16523891687393188
1778599343624156771,8.587156771,0.006566796451807022,-0.056199558079242706,-0.16646064817905426
1778599343634931146,8.597931146,-0.0007635809597559273,-0.03955349326133728,-0.15302163362503052
1778599343645705521,8.608705521000001,-0.01511890348047018,-0.02779434807598591,-0.1302669197320938
1778599343656479948,8.619479948,-0.03451386094093323,-0.02611446939408779,-0.10827577859163284
1778599343667254375,8.630254375,-0.043982263654470444,-0.030085090547800064,-0.09590577334165573
1778599343678028750,8.64102875,-0.044898562133312225,-0.020311253145337105,-0.09269873052835464
1778599343688803125,8.651803125,-0.046883873641490936,-0.008246674202382565,-0.11026109009981155
1778599343699577500,8.662577500000001,-0.04932733252644539,-0.0019853105768561363,-0.12125665694475174
1778599343710351979,8.673351979000001,-0.04428769648075104,0.007635809946805239,-0.12782345712184906
1778599343721126354,8.684126354,-0.040775224566459656,-0.0102319847792387,-0.12217295914888382
1778599343731900729,8.694900729,-0.03497200831770897,-0.03756818547844887,-0.10629047453403473
1778599343742675104,8.705675104,-0.02779434807598591,-0.03451386094093323,-0.09162971377372742
1778599343753449583,8.716449583000001,-0.02718348242342472,-0.022754713892936707,-0.08292489498853683
1778599343764223958,8.727223958,-0.028099779039621353,-0.002901607658714056,-0.06780599057674408
1778599343774998333,8.737998333,-0.03145953640341759,0.010537417605519295,-0.05803215503692627
1778599343785772760,8.748772760000001,-0.032681263983249664,0.01908952370285988,-0.05406153202056885
1778599343796547187,8.759547187,-0.026572618633508682,0.032070402055978775,-0.049632761627435684
1778599343807321562,8.770321562000001,-0.020769402384757996,0.050090912729501724,-0.035735588520765305
1778599343818095937,8.781095937,-0.019242240116000175,0.0565049909055233,-0.01893680728971958
1778599343828870365,8.791870365000001,-0.024740023538470268,0.04230238497257233,-0.007941242307424545
1778599343839644792,8.802644792,-0.022907428443431854,0.016340631991624832,-0.011300998739898205
1778599343850419115,8.813419115,-0.01435532234609127,0.013897174037992954,-0.008399390615522861
1778599343861193542,8.824193542,-0.003359756199643016,0.01435532234609127,0.00045814859913662076
1778599343871967969,8.834967969000001,0.011911863461136818,0.03145953640341759,0.012370011769235134
1778599343882742396,8.845742396,0.022449281066656113,0.05742128938436508,0.021380268037319183
1778599343893516771,8.856516771,0.026419902220368385,0.05406153202056885,0.02871064469218254
1778599343904291146,8.867291146000001,0.030085090547800064,0.03741546720266342,0.04581485688686371
1778599343915065573,8.878065573,0.028405211865901947,0.022296564653515816,0.06414080411195755
1778599343925840000,8.88884,0.03145953640341759,0.019242240116000175,0.06444623321294785
1778599343936614375,8.899614375,0.02764163166284561,0.008552107028663158,0.05070177838206291
1778599343947388750,8.910388750000001,0.018325943499803543,-0.004428769461810589,0.039706211537122726
1778599343958163177,8.921163177,0.008857538923621178,-0.01802051067352295,0.04214967042207718
1778599343968937604,8.931937604,-0.005650499369949102,-0.04245510324835777,0.054672397673130035
1778599343979711979,8.942711979,-0.011759147047996521,-0.05329795181751251,0.06963858753442764
1778599343990486354,8.953486354,-0.014966187067329884,-0.04810560122132301,0.08078686892986298
1778599344001260781,8.964260781,-0.012522728182375431,-0.02367101050913334,0.07834340631961823
1778599344012035208,8.975035208000001,-0.010537417605519295,-0.014202605932950974,0.07422006875276566
1778599344022809583,8.985809583,-0.013439024798572063,-0.017562363296747208,0.06001746281981468
1778599344033583958,8.996583958,-0.008093958720564842,-0.008093958720564842,0.042913250625133514
1778599344044358437,9.007358437,0.001679878099821508,-0.012675444595515728,0.036804601550102234
1778599344055132812,9.018132812000001,0.005803215317428112,-0.023518294095993042,0.03634645417332649
1778599344065907187,9.028907187,0.011911863461136818,-0.031001387163996696,0.03543015569448471
1778599344076681562,9.039681562,0.012522728182375431,-0.02519817277789116,0.043371398001909256
1778599344087456042,9.050456042,0.02367101050913334,-0.03711003437638283,0.06322450190782547
1778599344098230417,9.061230417,0.012980876490473747,-0.007635809946805239,0.06276635825634003
1778599344109004792,9.072004792000001,0.009773836471140385,0.001221729558892548,0.06001746281981468
1778599344119779271,9.082779271,-0.004581485874950886,-0.011759147047996521,0.04780016839504242
1778599344130553646,9.093553646,-0.008857538923621178,-0.02153298258781433,0.039248060435056686
1778599344141328021,9.104328021,-0.016340631991624832,-0.021685699000954628,0.03909534588456154
1778599344152102396,9.115102396000001,-0.021227551624178886,-0.02611446939408779,0.044898562133312225
1778599344162876875,9.125876875000001,-0.0256563201546669,-0.010690134018659592,0.046883873641490936
1778599344173651250,9.13665125,-0.03023780696094036,-0.009010255336761475,0.05024362727999687
1778599344184425625,9.147425625,-0.03909534588456154,-0.010995565913617611,0.05803215503692627
1778599344195200052,9.158200052,-0.05039634555578232,-0.020311253145337105,0.07574722915887833
1778599344205974479,9.168974479000001,-0.06322450190782547,-0.04245510324835777,0.1052214577794075
1778599344216748906,9.179748906,-0.07819069176912308,-0.07131846249103546,0.13484840095043182
1778599344227523229,9.190523229,-0.0847574844956398,-0.09651663154363632,0.15577052533626556
1778599344238297656,9.201297656000001,-0.11606431007385254,0.1107192412018776,0.1182023361325264
1778599344249072083,9.212072083,-0.07009673118591309,-0.03634645417332649,0.1585194170475006
1778599344259846458,9.222846458000001,-0.10094540566205978,-0.22479823231697083,0.19181154668331146
1778599344270620833,9.233620833,-0.08429934084415436,-0.1340848207473755,0.18005239963531494
1778599344281395312,9.244395312,-0.06673697382211685,-0.0642935186624527,0.18142683804035187
1778599344292169687,9.255169687,-0.060781046748161316,-0.040775224566459656,0.1776089370250702
1778599344302944062,9.265944062,-0.05940660089254379,-0.018631376326084137,0.16187916696071625
1778599344313718542,9.276718542000001,-0.054672397673130035,0.0386371985077858,0.12873975932598114
1778599344324492917,9.287492917,-0.05283980444073677,0.05085449293255806,0.11163553595542908
1778599344335267292,9.298267292,-0.043982263654470444,0.04932733252644539,0.1081230640411377
1778599344346041719,9.309041719000001,-0.03329212963581085,0.040775224566459656,0.11728604137897491
1778599344356816146,9.319816146,-0.030085090547800064,0.02611446939408779,0.12553271651268005
1778599344367590521,9.330590521000001,-0.022754713892936707,0.04199695214629173,0.09834922850131989
1778599344378364896,9.341364896,-0.020311253145337105,0.04474584385752678,0.07376192510128021
1778599344389139323,9.352139323000001,-0.017104214057326317,0.04276053607463837,0.05787943676114082
1778599344399913750,9.36291375,-0.003359756199643016,0.054214250296354294,0.05253437161445618
1778599344410688125,9.373688125000001,0.006414080038666725,0.05894844979047775,0.04734202101826668
1778599344421462500,9.3844625,0.011759147047996521,0.04199695214629173,0.03390299528837204
1778599344432236979,9.395236979,0.013897174037992954,0.007330377586185932,0.033139415085315704
1778599344443011354,9.406011354,0.005345067009329796,-0.026572618633508682,0.0412333719432354
1778599344453785781,9.416785781,0.004581485874950886,-0.03252854943275452,0.046883873641490936
1778599344464560208,9.427560208000001,0.011300998739898205,-0.02000582218170166,0.05024362727999687
1778599344475334583,9.438334583000001,0.021227551624178886,0.002901607658714056,0.046883873641490936
1778599344486108958,9.449108958,0.03588830679655075,0.030543239787220955,0.050090912729501724
1778599344496883385,9.459883385000001,0.04764745384454727,0.05329795181751251,0.06643154472112656
1778599344507657812,9.470657812,0.04764745384454727,0.07162389904260635,0.07788526266813278
1778599344518432187,9.481432187000001,0.04734202101826668,0.09819651395082474,0.07757982611656189
1778599344529206562,9.492206562,0.03817904740571976,0.09819651395082474,0.07055488228797913
1778599344539981042,9.502981042,0.028405211865901947,0.06795870512723923,0.07009673118591309
1778599344550755417,9.513755417,0.024740023538470268,0.026419902220368385,0.07589995115995407
1778599344561529792,9.524529792000001,0.02153298258781433,-0.0204639695584774,0.09957095980644226
1778599344572304271,9.535304271000001,0.0154243353754282,-0.06505709886550903,0.13072505593299866
1778599344583078646,9.546078646,0.01588248461484909,-0.10048725455999374,0.15241076052188873
1778599344593853021,9.556853021,0.010690134018659592,-0.10583232343196869,0.15317434072494507
1778599344604627448,9.567627448000001,0.004428769461810589,-0.09728021919727325,0.15577052533626556
1778599344615401875,9.578401875,0.007330377586185932,-0.05406153202056885,0.1533270627260208
1778599344626176250,9.589176250000001,0.01908952370285988,-0.010995565913617611,0.13942988216876984
1778599344636950625,9.599950625,0.01740964688360691,-0.005803215317428112,0.13820815086364746
1778599344647725104,9.610725104,0.016646064817905426,-0.015577051788568497,0.14508038759231567
1778599344658499479,9.621499479,0.005192350596189499,-0.03176496922969818,0.1663079410791397
1778599344669273906,9.632273906,0.0027488914784044027,-0.06307178735733032,0.1905898153781891
1778599344680048333,9.643048333000001,0.002443459117785096,-0.07895427197217941,0.20219624042510986
1778599344690822708,9.653822708,0.007024944759905338,-0.07849612087011337,0.20463970303535461
1778599344701597083,9.664597083,0.01588248461484909,-0.06994401663541794,0.205861434340477
1778599344712371562,9.675371562,0.027336198836565018,-0.06230820715427399,0.21380266547203064
1778599344723145937,9.686145937000001,0.03543015569448471,-0.06872228533029556,0.22937972843647003
1778599344733920365,9.696920365,0.044440411031246185,-0.0591011680662632,0.24251331388950348
1778599344744694792,9.707694792,0.05955931544303894,-0.034208428114652634,0.2655734717845917
1778599344755469167,9.718469167,0.07116574794054031,-0.005803215317428112,0.28756460547447205
1778599344766243542,9.729243542,0.0870482325553894,0.020769402384757996,0.29626941680908203
1778599344777018021,9.740018021000001,0.09728021919727325,0.0435241162776947,0.30482152104377747
1778599344787792396,9.750792396000001,0.1026252806186676,0.03756818547844887,0.3072649836540222
1778599344798566875,9.761566875,0.10415244847536087,0.008246674202382565,0.3136790692806244
1778599344809341250,9.77234125,0.10216713696718216,-0.005803215317428112,0.3222311735153198
1778599344820115677,9.783115677000001,0.09926552325487137,-0.0009162971982732415,0.3231474757194519
1778599344830890104,9.793890104,0.08842267841100693,-0.028557928279042244,0.31642794609069824
1778599344841664479,9.804664479000001,0.08552107214927673,-0.05100720748305321,0.29413139820098877
1778599344852438958,9.815438958000001,0.09529490768909454,-0.04474584385752678,0.2565632164478302
1778599344863213333,9.826213333,0.09682206809520721,-0.04321868345141411,0.2237292230129242
1778599344873987708,9.836987708,0.09804379940032959,-0.03588830679655075,0.20463970303535461
1778599344884762187,9.847762187,0.09560033679008484,-0.04230238497257233,0.19639302790164948
1778599344895536562,9.858536562000001,0.09529490768909454,-0.05894844979047775,0.18616104125976562
1778599344906311042,9.869311042000001,0.09330959618091583,-0.0821613147854805,0.17318016290664673
1778599344917085417,9.880085417,0.09285144507884979,-0.10216713696718216,0.16340632736682892
1778599344927859844,9.890859844000001,0.10476330667734146,-0.0977383628487587,0.15638138353824615
1778599344938634271,9.901634271,0.11484257876873016,-0.08888082206249237,0.15271618962287903
1778599344949408698,9.912408698,0.11514800786972046,-0.09086613357067108,0.14630211889743805
1778599344960183125,9.923183125000001,0.11209368705749512,-0.0925460159778595,0.1380554437637329
1778599344970957500,9.9339575,0.10949750989675522,-0.08277218043804169,0.12476912885904312
1778599344981731979,9.944731979,0.10430516302585602,-0.08109229803085327,0.11087195575237274
1778599344992506354,9.955506354,0.09208786487579346,-0.09010255336761475,0.10354158282279968
1778599345003280833,9.966280833,0.08628465235233307,-0.09498947113752365,0.10308343172073364
1778599345014055208,9.977055208000001,0.07819069176912308,-0.10965022444725037,0.11743875592947006
1778599345024829687,9.987829687000001,0.07238747924566269,-0.10827577859163284,0.13133592903614044
1778599345035604062,9.998604062,0.06811141967773438,-0.09987638890743256,0.12965604662895203
1778599345046378542,10.009378542,0.06322450190782547,-0.10094540566205978,0.13530655205249786
1778599345057152917,10.020152917,0.07284562289714813,-0.07605266571044922,0.13652828335762024
1778599345067927396,10.030927396000001,0.08155044913291931,-0.05100720748305321,0.12400554865598679
1778599345078701771,10.041701771000001,0.08842267841100693,-0.04230238497257233,0.11239911615848541
1778599345089476250,10.05247625,0.08872810751199722,-0.03955349326133728,0.11896591633558273
1778599345100250625,10.063250625,0.08643736690282822,-0.05787943676114082,0.13775001466274261
1778599345111025104,10.074025104,0.08643736690282822,-0.06551524996757507,0.15806126594543457
1778599345121799479,10.084799479,0.09865466505289078,-0.04917461425065994,0.18417572975158691
1778599345132573958,10.095573958000001,0.10476330667734146,-0.02107483521103859,0.19425499439239502
1778599345143348333,10.106348333000001,0.11239911615848541,0.028099779039621353,0.1844811588525772
1778599345154122812,10.117122812,0.11804962158203125,0.07360920310020447,0.1594357043504715
1778599345164897187,10.127897187,0.10965022444725037,0.0769689604640007,0.14538581669330597
1778599345175671667,10.138671667,0.09498947113752365,0.05253437161445618,0.14599667489528656
1778599345186446042,10.149446042000001,0.08155044913291931,0.04001164436340332,0.14996729791164398
1778599345197220417,10.160220417000001,0.07452550530433655,0.047952886670827866,0.16126830875873566
1778599345207994896,10.170994896,0.07544180005788803,0.05787943676114082,0.17974695563316345
1778599345218769375,10.181769375,0.07849612087011337,0.060781046748161316,0.20402882993221283
1778599345229543750,10.19254375,0.08032871782779694,0.05787943676114082,0.23228132724761963
1778599345240318229,10.203318229,0.08155044913291931,0.057726722210645676,0.2533561587333679
1778599345251092604,10.214092604000001,0.08842267841100693,0.06322450190782547,0.2606865465641022
1778599345261867083,10.224867083000001,0.09407317638397217,0.06383536756038666,0.26878049969673157
1778599345272641458,10.235641458,0.10720676928758621,0.07528908550739288,0.27550002932548523
1778599345283415937,10.246415937,0.12186752259731293,0.07651081681251526,0.28466299176216125
1778599345294190312,10.257190312,0.1262962967157364,0.060322895646095276,0.29703301191329956
1778599345304964792,10.267964792,0.13041962683200836,0.040775224566459656,0.30482152104377747
1778599345315739167,10.278739167000001,0.1340848207473755,0.01435532234609127,0.31291547417640686
1778599345326513646,10.289513646000001,0.13484840095043182,-0.0027488914784044027,0.3266599476337433
1778599345337288073,10.300288073,0.145843967795372,0.01802051067352295,0.3243691921234131
1778599345348062500,10.3110625,0.15149445831775665,0.019242240116000175,0.3352120518684387
1778599345358836927,10.321836927000001,0.16569706797599792,0.05039634555578232,0.3381136655807495
1778599345369611354,10.332611354,0.19089524447917938,0.0720820426940918,0.33857181668281555
1778599345380385833,10.343385833000001,0.2049451321363449,0.07864884287118912,0.337808221578598
1778599345391160208,10.354160208000001,0.22724169492721558,0.08949168771505356,0.33399030566215515
1778599345401934687,10.364934687,0.24602578580379486,0.0850629210472107,0.3315468728542328
1778599345412709062,10.375709062,0.25534147024154663,0.06200277432799339,0.33567020297050476
1778599345423483542,10.386483542,0.25992295145988464,0.03329212963581085,0.3462076187133789
1778599345434257917,10.397257917000001,0.25900667905807495,0.002901607658714056,0.3520108163356781
1778599345445032396,10.408032396000001,0.25121814012527466,-0.005803215317428112,0.342542439699173
1778599345455806771,10.418806771,0.24526220560073853,-0.021991131827235222,0.32131487131118774
1778599345466581250,10.42958125,0.22647811472415924,-0.07284562289714813,0.3072649836540222
1778599345477355729,10.440355729,0.2130390852689743,-0.11453714966773987,0.30482152104377747
1778599345488130104,10.451130104,0.20311254262924194,-0.12614357471466064,0.3182605504989624
1778599345498904583,10.461904583,0.210442915558815,-0.07254019379615784,0.33047783374786377
1778599345509678958,10.472678958000001,0.21868959069252014,-0.013439024798572063,0.33658650517463684
1778599345520453437,10.483453437000001,0.22357651591300964,0.0383317656815052,0.34865108132362366
1778599345531227865,10.494227865000001,0.23503021895885468,0.06811141967773438,0.35124725103378296
1778599345542002292,10.505002292,0.23533566296100616,0.039858926087617874,0.36163195967674255
1778599345552776771,10.515776771,0.235793799161911,-0.003665188793092966,0.3764454126358032
1778599345563551146,10.526551146000001,0.2341139316558838,-0.052076224237680435,0.37629270553588867
1778599345574325625,10.537325625000001,0.23457208275794983,-0.08353576064109802,0.35475972294807434
1778599345585100000,10.5481,0.23655737936496735,-0.10063996911048889,0.3523162603378296
1778599345595874479,10.558874479,0.2367101013660431,-0.11927134543657303,0.3681987524032593
1778599345606648958,10.569648958,0.2386954128742218,-0.09407317638397217,0.37843072414398193
1778599345617423333,10.580423333,0.24465134739875793,-0.07055488228797913,0.39018988609313965
1778599345628197812,10.591197812,0.2458730787038803,-0.021227551624178886,0.406530499458313
1778599345638972187,10.601972187000001,0.2617555558681488,0.04764745384454727,0.39996370673179626
1778599345649746667,10.612746667000001,0.27030766010284424,0.06643154472112656,0.40255987644195557
1778599345660521094,10.623521094,0.2831358313560486,0.07651081681251526,0.40286532044410706
1778599345671295521,10.634295521,0.2965748608112335,0.0850629210472107,0.39400777220726013
1778599345682070000,10.64507,0.29535311460494995,0.09361502528190613,0.38789913058280945
1778599345692844375,10.655844375000001,0.2874118685722351,0.08109229803085327,0.38698282837867737
1778599345703618854,10.666618854000001,0.2764163017272949,0.06765327602624893,0.3995055556297302
1778599345714393229,10.677393229000002,0.27030766010284424,0.07254019379615784,0.42562004923820496
1778599345725167708,10.688167708,0.26221370697021484,0.06750056147575378,0.45998117327690125
1778599345735942187,10.698942187,0.2562577724456787,0.0717766135931015,0.4920515716075897
1778599345746716562,10.709716562,0.24724751710891724,0.06352993845939636,0.5210676789283752
1778599345757491042,10.720491042,0.24602578580379486,0.07086031138896942,0.541378915309906
1778599345768265417,10.731265417000001,0.24404047429561615,0.08582650125026703,0.5531380772590637
1778599345779039896,10.742039896000001,0.24526220560073853,0.08872810751199722,0.5490147471427917
1778599345789814323,10.752814323,0.2519817352294922,0.07483093440532684,0.5311469435691833
1778599345800588750,10.76358875,0.2623664140701294,0.044898562133312225,0.5057960152626038
1778599345811363229,10.774363229,0.27809619903564453,0.013439024798572063,0.48013970255851746
1778599345822137604,10.785137604,0.2968802750110626,0.006414080038666725,0.46547895669937134
1778599345832912083,10.795912083000001,0.30543237924575806,0.0019853105768561363,0.4685332775115967
1778599345843686562,10.806686562000001,0.30085089802742004,-0.010690134018659592,0.4864010810852051
1778599345854460937,10.817460937,0.2837466895580292,-0.003359756199643016,0.49113526940345764
1778599345865235417,10.828235417,0.26221370697021484,0.013897174037992954,0.48273590207099915
1778599345876009792,10.839009792,0.24465134739875793,0.04428769648075104,0.4581485986709595
1778599345886784271,10.849784271,0.2260199636220932,0.05711585655808449,0.4341721534729004
1778599345897558698,10.860558698,0.21181736886501312,0.060781046748161316,0.41294458508491516
1778599345908333125,10.871333125000001,0.20357069373130798,0.0639880821108818,0.4062250852584839
1778599345919107604,10.882107604000002,0.20189081132411957,0.07009673118591309,0.3964512348175049
1778599345929881979,10.892881979,0.20372340083122253,0.08032871782779694,0.3756818473339081
1778599345940656458,10.903656458,0.20479241013526917,0.07422006875276566,0.3364337682723999
1778599345951430937,10.914430937,0.19792018830776215,0.028557928279042244,0.295811265707016
1778599345962205312,10.925205312000001,0.18524473905563354,-0.03375028073787689,0.26679518818855286
1778599345972979792,10.935979792000001,0.1718057245016098,-0.06994401663541794,0.23747368156909943
1778599345983754167,10.946754167,0.15928299725055695,-0.08643736690282822,0.22250749170780182
1778599345994528646,10.957528646,0.14172062277793884,-0.08521563559770584,0.22036947309970856
1778599346005303073,10.968303073000001,0.12247838824987411,-0.06933315098285675,0.23014330863952637
1778599346016077500,10.9790775,0.10995566099882126,-0.040317077189683914,0.24083344638347626
1778599346026851979,10.989851979,0.10705405473709106,-0.018325943499803543,0.25579962134361267
1778599346037626354,11.000626354000001,0.1182023361325264,0.010537417605519295,0.28038692474365234
1778599346048400833,11.011400833000001,0.1282816082239151,0.03634645417332649,0.2993237376213074
1778599346059175208,11.022175208,0.13072505593299866,0.03955349326133728,0.3176496922969818
1778599346069949687,11.032949687,0.12583814561367035,0.03176496922969818,0.33536475896835327
1778599346080724167,11.043724167,0.12064579129219055,0.03543015569448471,0.3396408259868622
1778599346091498542,11.054498542000001,0.12064579129219055,0.05787943676114082,0.3312414288520813
1778599346102273021,11.065273021000001,0.11514800786972046,0.07483093440532684,0.3251327872276306
1778599346113047448,11.076047448,0.09987638890743256,0.0668896958231926,0.3324631452560425
1778599346123821875,11.086821875,0.08628465235233307,0.06352993845939636,0.3520108163356781
1778599346134596354,11.097596354,0.07651081681251526,0.05940660089254379,0.3730856776237488
1778599346145370729,11.108370729,0.0769689604640007,0.0642935186624527,0.3903425931930542
1778599346156145208,11.119145208,0.10384701192378998,0.1029307171702385,0.3877464234828949
1778599346166919583,11.129919583000001,0.12553271651268005,0.11728604137897491,0.40775224566459656
1778599346177694062,11.140694062000001,0.145843967795372,0.11026109009981155,0.42882707715034485
1778599346188468542,11.151468542,0.1715002804994583,0.08277218043804169,0.4558578431606293
1778599346199242917,11.162242917,0.20127993822097778,0.06963858753442764,0.46975502371788025
1778599346210017396,11.173017396,0.2257145345211029,0.05253437161445618,0.46685341000556946
1778599346220791823,11.183791823,0.23243404924869537,0.017104214057326317,0.4630354940891266
1778599346231566250,11.194566250000001,0.22556181252002716,-0.021227551624178886,0.4712821841239929
1778599346242340729,11.205340729000001,0.21777328848838806,-0.036193739622831345,0.4789179861545563
1778599346253115104,11.216115104,0.2214384824037552,-0.011300998739898205,0.47326749563217163
1778599346263889583,11.226889583,0.231212317943573,0.0204639695584774,0.45539969205856323
1778599346274663958,11.237663958,0.2292270064353943,0.019242240116000175,0.44318240880966187
1778599346285438437,11.248438437,0.22724169492721558,0.022754713892936707,0.4370737373828888
1778599346296212917,11.259212917000001,0.2309068888425827,0.04367683082818985,0.4221075773239136
1778599346306987292,11.269987292000001,0.23167046904563904,0.0461202897131443,0.4143190383911133
1778599346317761771,11.280761771,0.23365578055381775,0.05864302068948746,0.42088583111763
1778599346328536198,11.291536198000001,0.231212317943573,0.05345066636800766,0.43310311436653137
1778599346339310625,11.302310625,0.23335035145282745,0.03787361457943916,0.4520399272441864
1778599346350085104,11.313085104,0.24480405449867249,0.040775224566459656,0.4508182108402252
1778599346360859479,11.323859479000001,0.2464839369058609,0.040317077189683914,0.41874781250953674
1778599346371633958,11.334633958000001,0.235793799161911,0.028099779039621353,0.378888875246048
1778599346382408437,11.345408437000001,0.21578797698020935,0.023976443335413933,0.3610210716724396
1778599346393182812,11.356182812,0.18860450387001038,0.012675444595515728,0.3543015718460083
1778599346403957292,11.366957292,0.17195843160152435,0.01954767294228077,0.3585776388645172
1778599346414731719,11.377731719000002,0.16829325258731842,0.06597339361906052,0.36544984579086304
1778599346425506146,11.388506146000001,0.16035200655460358,0.09850194305181503,0.3543015718460083
1778599346436280625,11.399280625000001,0.13240493834018707,0.09330959618091583,0.3410152494907379
1778599346447055000,11.410055,0.07483093440532684,0.06673697382211685,0.342542439699173
1778599346457829531,11.420829531,0.017104214057326317,0.046425722539424896,0.3530798554420471
1778599346468603958,11.431603958,-0.019242240116000175,0.04306596517562866,0.36621344089508057
1778599346479378333,11.442378333,-0.028557928279042244,0.0383317656815052,0.3848448097705841
1778599346490152812,11.453152812,-0.008552107028663158,0.03176496922969818,0.37140578031539917
1778599346500927240,11.46392724,0.026572618633508682,0.003970621153712273,0.3402516841888428
1778599346511701771,11.474701771000001,0.07910698652267456,-0.03130681812763214,0.3046688139438629
1778599346522476146,11.485476146,0.12431098520755768,-0.06963858753442764,0.2809978127479553
1778599346533250521,11.496250521,0.16539163887500763,-0.10674861818552017,0.26160284876823425
1778599346544025000,11.507025,0.19211697578430176,-0.13103049993515015,0.25793763995170593
1778599346554799479,11.517799479,0.19883649051189423,-0.15271618962287903,0.27168211340904236
1778599346565573854,11.528573854000001,0.19104796648025513,-0.16768237948417664,0.3087921440601349
1778599346576348333,11.539348333000001,0.1815795600414276,-0.15515965223312378,0.36621344089508057
1778599346587122812,11.550122812000001,0.17684535682201385,-0.11362084746360779,0.4072940945625305
1778599346597897187,11.560897187,0.1737910360097885,-0.08093958348035812,0.42042768001556396
1778599346608671667,11.571671667,0.16004657745361328,-0.06352993845939636,0.4153880476951599
1778599346619446146,11.582446146,0.14569124579429626,-0.02932151034474373,0.4001164436340332
1778599346630220625,11.593220625,0.13469567894935608,-0.013133592903614044,0.37690356373786926
1778599346640995000,11.603995000000001,0.12018764764070511,-0.013897174037992954,0.34788748621940613
1778599346651769479,11.614769479000001,0.11331541836261749,0.009773836471140385,0.33368489146232605
1778599346662543958,11.625543958000002,0.10720676928758621,0.035124726593494415,0.33276858925819397
1778599346673318385,11.636318385000001,0.0974329337477684,0.054214250296354294,0.3026835024356842
1778599346684092812,11.647092812,0.09330959618091583,0.06566796451807022,0.2620609998703003
1778599346694867292,11.657867292,0.09117157012224197,0.07528908550739288,0.23961171507835388
1778599346705641771,11.668641771,0.08750637620687485,0.08231402933597565,0.22174391150474548
1778599346716416198,11.679416198,0.09208786487579346,0.09162971377372742,0.21319180727005005
1778599346727190625,11.690190625000001,0.09865466505289078,0.10873392969369888,0.19853104650974274
1778599346737965104,11.700965104000002,0.10674861818552017,0.10109812021255493,0.16661337018013
1778599346748739583,11.711739583,0.11972949653863907,0.09498947113752365,0.13683371245861053
1778599346759514062,11.722514062,0.12431098520755768,0.07086031138896942,0.10354158282279968
1778599346770288437,11.733288437,0.1262962967157364,0.036193739622831345,0.06719512492418289
1778599346781062917,11.744062917,0.12293653935194016,0.004886918235570192,0.04276053607463837
1778599346791837396,11.754837396000001,0.1262962967157364,-0.0027488914784044027,0.03176496922969818
1778599346802611875,11.765611875000001,0.1285870373249054,0.014966187067329884,0.020158538594841957
1778599346813386354,11.776386354000001,0.12980876863002777,0.03176496922969818,0.0256563201546669
1778599346824160729,11.787160729,0.12736530601978302,0.044440411031246185,0.04199695214629173
1778599346834935208,11.797935208,0.12553271651268005,0.06017018109560013,0.06887500733137131
1778599346845709687,11.808709687,0.12293653935194016,0.08384118974208832,0.09957095980644226
1778599346856484167,11.819484167,0.1204930767416954,0.10018182545900345,0.12721258401870728
1778599346867258646,11.830258646,0.12293653935194016,0.11514800786972046,0.14172062277793884
1778599346878033125,11.841033125000001,0.12140937149524689,0.0977383628487587,0.1418733447790146
1778599346888807500,11.851807500000001,0.12293653935194016,0.07086031138896942,0.13209950923919678
1778599346899581979,11.862581979000002,0.1279761642217636,0.04917461425065994,0.1311832070350647
1778599346910356458,11.873356458,0.13591741025447845,0.04428769648075104,0.13942988216876984
1778599346921130937,11.884130937,0.14263692498207092,0.05894844979047775,0.1496618688106537
1778599346931905365,11.894905365000001,0.13775001466274261,0.06261363625526428,0.16294817626476288
1778599346942679896,11.905679896,0.13484840095043182,0.07910698652267456,0.17776164412498474
1778599346953454323,11.916454323,0.13072505593299866,0.09315688163042068,0.18952079117298126
1778599346964228750,11.927228750000001,0.12186752259731293,0.06627883017063141,0.20341797173023224
1778599346975003229,11.938003229000001,0.11896591633558273,0.048563748598098755,0.21639885008335114
1778599346985777708,11.948777708000001,0.1153007298707962,0.03497200831770897,0.23014330863952637
1778599346996552187,11.959552187,0.11575887352228165,0.03130681812763214,0.25091269612312317
1778599347007326562,11.970326562,0.1127045527100563,0.022907428443431854,0.2632827162742615
1778599347018101094,11.981101094000001,0.10018182545900345,-0.003970621153712273,0.2672533392906189
1778599347028875573,11.991875573000002,0.08521563559770584,-0.022754713892936707,0.25549420714378357
1778599347039650052,12.002650052,0.07864884287118912,-0.01511890348047018,0.23426663875579834
1778599347050424531,12.013424531,0.08597921580076218,0.016340631991624832,0.22525638341903687
1778599347061199010,12.02419901,0.09498947113752365,0.05955931544303894,0.24006985127925873
1778599347071973437,12.034973437000001,0.0974329337477684,0.0847574844956398,0.2594648003578186
1778599347082747865,12.045747865000001,0.09010255336761475,0.09132428467273712,0.2864955961704254
1778599347093522344,12.056522344000001,0.07971785217523575,0.08643736690282822,0.30482152104377747
1778599347104296823,12.067296823000001,0.07605266571044922,0.07254019379615784,0.31413722038269043
1778599347115071302,12.078071302000001,0.0717766135931015,0.05940660089254379,0.295811265707016
1778599347125845781,12.088845781000002,0.0668896958231926,0.028405211865901947,0.2652680277824402
1778599347136620260,12.09962026,0.07040216773748398,0.007330377586185932,0.2257145345211029
1778599347147394740,12.11039474,0.07330377399921417,-0.010690134018659592,0.18585561215877533
1778599347158169167,12.121169167000001,0.07498364895582199,-0.024892739951610565,0.15073087811470032
1778599347168943594,12.131943594,0.07483093440532684,-0.04321868345141411,0.12996147572994232
1778599347179718073,12.142718073000001,0.07131846249103546,-0.07055488228797913,0.11698060482740402
1778599347190492552,12.153492552000001,0.07498364895582199,-0.06108647957444191,0.11728604137897491
1778599347201267031,12.164267031000001,0.0769689604640007,-0.0334448479115963,0.13011419773101807
1778599347212041510,12.175041510000002,0.06444623321294785,-0.03711003437638283,0.12553271651268005
1778599347222815990,12.18581599,0.04673115536570549,-0.04321868345141411,0.11972949653863907
1778599347233590469,12.196590469,0.03756818547844887,-0.015577051788568497,0.12950333952903748
1778599347244364948,12.207364948,0.02779434807598591,0.01435532234609127,0.13332124054431915
1778599347255139427,12.218139427,0.014202605932950974,0.021227551624178886,0.12843431532382965
1778599347265913802,12.228913802000001,0.007024944759905338,0.032681263983249664,0.12767073512077332
1778599347276688281,12.239688281000001,0.005803215317428112,0.03909534588456154,0.13041962683200836
1778599347287462760,12.250462760000001,0.006872228812426329,0.02764163166284561,0.1279761642217636
1778599347298237240,12.261237240000002,0.008246674202382565,0.018784092739224434,0.12156209349632263
1778599347309011719,12.272011719,0.013439024798572063,0.021991131827235222,0.11423171311616898
1778599347319786198,12.282786198,0.0154243353754282,0.011453714221715927,0.09865466505289078
1778599347330560677,12.293560677,0.017562363296747208,-0.006414080038666725,0.09346231073141098
1778599347341335156,12.304335156,0.022754713892936707,-0.010079269297420979,0.09468404203653336
1778599347352109635,12.315109635,0.029626941308379173,0.009315688163042068,0.09529490768909454
1778599347362884115,12.325884115000001,0.03543015569448471,0.03176496922969818,0.09101885557174683
1778599347373658594,12.336658594000001,0.032070402055978775,0.03390299528837204,0.08567378669977188
1778599347384433073,12.347433073000001,0.023212861269712448,0.03023780696094036,0.07635809481143951
1778599347395207552,12.358207552000001,0.01802051067352295,0.026878049597144127,0.06643154472112656
1778599347405982031,12.368982031000002,0.016187917441129684,0.017867794260382652,0.06719512492418289
1778599347416756510,12.37975651,0.013744457624852657,0.014202605932950974,0.06811141967773438
1778599347427530885,12.390530885,0.008857538923621178,0.013744457624852657,0.06612611562013626
1778599347438305469,12.401305469,0.005192350596189499,0.011759147047996521,0.059864748269319534
1778599347449079948,12.412079948,0.005803215317428112,0.007330377586185932,0.054214250296354294
1778599347459854375,12.422854375,0.005650499369949102,0.001221729558892548,0.052687086164951324
1778599347470628906,12.433628906000001,0.004886918235570192,-0.008857538923621178,0.04566214233636856
1778599347481403281,12.444403281000001,0.003970621153712273,-0.017562363296747208,0.03298669680953026
1778599347492177865,12.455177865000001,0.004123337101191282,-0.01740964688360691,0.025809036567807198
1778599347502952240,12.46595224,0.007330377586185932,-0.005345067009329796,0.018784092739224434
1778599347513726719,12.476726719,0.007024944759905338,0.004581485874950886,0.02000582218170166
1778599347524501198,12.487501198,0.006414080038666725,0.00946840364485979,0.02871064469218254
1778599347535275677,12.498275677,0.005650499369949102,0.006872228812426329,0.03298669680953026
1778599347546050208,12.509050208000001,0.0019853105768561363,-0.0032070400193333626,0.04046979174017906
1778599347556824740,12.51982474,0.00045814859913662076,-0.013133592903614044,0.04199695214629173
1778599347567599219,12.530599219,0.0007635809597559273,-0.010079269297420979,0.04459312930703163
1778599347578373698,12.541373698000001,0.011453714221715927,-0.001679878099821508,0.053756099194288254
1778599347589148177,12.552148177000001,0.02153298258781433,-0.0,0.05833758786320686
1778599347599922656,12.562922656000001,0.03543015569448471,-0.011759147047996521,0.05925388261675835
1778599347610697135,12.573697135000002,0.04734202101826668,-0.021227551624178886,0.060322895646095276
1778599347621471615,12.584471615,0.05528326332569122,-0.024892739951610565,0.06536252796649933
1778599347632246094,12.595246094,0.0565049909055233,-0.026419902220368385,0.06597339361906052
1778599347643020573,12.606020573,0.05039634555578232,-0.01802051067352295,0.06200277432799339
1778599347653795052,12.616795052,0.04276053607463837,-0.002901607658714056,0.0591011680662632
1778599347664569531,12.627569531,0.03451386094093323,0.02153298258781433,0.054672397673130035
1778599347675344010,12.63834401,0.02519817277789116,0.03543015569448471,0.04657844081521034
1778599347686118490,12.649118490000001,0.01588248461484909,0.04153880476951599,0.03558287397027016
1778599347696892969,12.659892969000001,0.010995565913617611,0.041844237595796585,0.022907428443431854
1778599347707667448,12.670667448000001,0.011453714221715927,0.03695731982588768,0.014049889519810677
1778599347718442031,12.681442031000001,0.016798781231045723,0.029626941308379173,0.008704823441803455
1778599347729216510,12.692216510000002,0.02000582218170166,0.022907428443431854,0.007024944759905338
1778599347739990990,12.70299099,0.025961752980947495,0.02718348242342472,0.011148282326757908
1778599347750765469,12.713765469,0.03176496922969818,0.04001164436340332,0.005345067009329796
1778599347761539948,12.724539948,0.03145953640341759,0.05451968312263489,0.001221729558892548
1778599347772314427,12.735314427,0.025961752980947495,0.06017018109560013,0.003359756199643016
1778599347783088906,12.746088906,0.021991131827235222,0.05955931544303894,-0.0027488914784044027
1778599347793863385,12.756863385,0.016646064817905426,0.04306596517562866,-0.023823726922273636
1778599347804637865,12.767637865000001,0.013439024798572063,0.01954767294228077,-0.04306596517562866
1778599347815412344,12.778412344000001,0.0154243353754282,0.006108647678047419,-0.06047561392188072
1778599347826186927,12.789186927000001,0.02107483521103859,0.004428769461810589,-0.07651081681251526
1778599347836961406,12.799961406000001,0.028099779039621353,0.011453714221715927,-0.0899498388171196
1778599347847735885,12.810735885000001,0.03252854943275452,0.008857538923621178,-0.09407317638397217
1778599347858510365,12.821510365,0.0386371985077858,0.010995565913617611,-0.0922405794262886
1778599347869284844,12.832284844,0.0412333719432354,0.016798781231045723,-0.08872810751199722
1778599347880059323,12.843059323,0.04108065739274025,0.026419902220368385,-0.09361502528190613
1778599347890833802,12.853833802,0.035124726593494415,0.028863361105322838,-0.1127045527100563
1778599347901608281,12.864608281,0.025350889191031456,0.007788525894284248,-0.1334739476442337
1778599347912382865,12.875382865,0.017867794260382652,0.004428769461810589,-0.13713914155960083
1778599347923157344,12.886157344,0.014660755172371864,0.02611446939408779,-0.13515383005142212
1778599347933931823,12.896931823000001,0.008552107028663158,0.03756818547844887,-0.13744457066059113
1778599347944706302,12.907706302000001,0.0027488914784044027,0.03329212963581085,-0.1386663019657135
1778599347955480781,12.918480781000001,-0.0032070400193333626,0.024434590712189674,-0.14492766559123993
1778599347966255260,12.929255260000001,-0.006414080038666725,0.014660755172371864,-0.13683371245861053
1778599347977029740,12.94002974,-0.008857538923621178,0.02779434807598591,-0.12812888622283936
1778599347987804323,12.950804323000002,-0.006108647678047419,0.04108065739274025,-0.13759729266166687
1778599347998578802,12.961578802,-0.00946840364485979,0.03695731982588768,-0.1571449637413025
1778599348009353281,12.972353281,-0.012522728182375431,0.022907428443431854,-0.164322629570961
1778599348020127760,12.98312776,-0.012217295356094837,0.02611446939408779,-0.16279546916484833
1778599348030902240,12.99390224,-0.013133592903614044,0.050090912729501724,-0.16279546916484833
1778599348041676719,13.004676719,-0.017867794260382652,0.06597339361906052,-0.1637117564678192
1778599348052451198,13.015451198000001,-0.027336198836565018,0.054214250296354294,-0.16768237948417664
1778599348063225729,13.026225729,-0.034666575491428375,0.02932151034474373,-0.1747073233127594
1778599348074000260,13.037000260000001,-0.031001387163996696,0.020769402384757996,-0.17577634751796722
1778599348084774740,13.047774740000001,-0.021991131827235222,0.026572618633508682,-0.1802051067352295
1778599348095549219,13.058549219000001,-0.014966187067329884,0.028099779039621353,-0.18570289015769958
1778599348106323698,13.069323698000002,-0.008246674202382565,0.029016077518463135,-0.18677189946174622
1778599348117098177,13.080098177,-0.004581485874950886,0.022907428443431854,-0.18600831925868988
1778599348127872656,13.090872656,-0.0007635809597559273,0.022754713892936707,-0.19181154668331146
1778599348138647240,13.10164724,-0.0032070400193333626,0.024434590712189674,-0.20341797173023224
1778599348149421719,13.112421719,-0.011759147047996521,0.0007635809597559273,-0.2133445292711258
1778599348160196198,13.123196198,-0.018631376326084137,-0.01435532234609127,-0.21090106666088104
1778599348170970677,13.133970677,-0.01802051067352295,-0.011911863461136818,-0.2087630331516266
1778599348181745156,13.144745156,-0.019242240116000175,-0.00045814859913662076,-0.20677772164344788
1778599348192519635,13.155519635000001,-0.021227551624178886,0.011759147047996521,-0.21197007596492767
1778599348203294115,13.166294115000001,-0.022907428443431854,0.007788525894284248,-0.22296564280986786
1778599348214068698,13.177068698000001,-0.025350889191031456,-0.002443459117785096,-0.2309068888425827
1778599348224843177,13.187843177000001,-0.021991131827235222,-0.02153298258781433,-0.23854269087314606
1778599348235617656,13.198617656000001,-0.01802051067352295,-0.0204639695584774,-0.24297146499156952
1778599348246392135,13.209392135000002,-0.010079269297420979,-0.0102319847792387,-0.24755294620990753
1778599348257166615,13.220166615,-0.004428769461810589,0.001221729558892548,-0.2487746775150299
