time,seconds_elapsed,z,y,x
1778601107546000000,0.0,2.8827531337738037,0.13998012244701385,9.716055870056152
1778601107556775937,0.010775937000000001,2.8827531337738037,0.13998012244701385,9.716055870056152
1778601107567551875,0.021551875,2.562114953994751,0.14117653667926788,9.578469276428223
1778601107578327812,0.032327812000000004,2.562114953994751,0.14117653667926788,9.578469276428223
1778601107589103750,0.04310375,2.7014968395233154,0.22851456701755524,9.645467758178711
1778601107599879687,0.053879687,2.7014968395233154,0.22851456701755524,9.645467758178711
1778601107610655677,0.06465567700000001,2.544766902923584,0.26560330390930176,9.586843490600586
1778601107621431562,0.07543156200000001,2.544766902923584,0.26560330390930176,9.586843490600586
1778601107632207604,0.08620760400000001,2.492722988128662,0.2763710021972656,9.605986595153809
1778601107642983541,0.096983541,2.6183462142944336,0.25004997849464417,9.506684303283691
1778601107653759479,0.107759479,2.8767709732055664,0.17647066712379456,9.5533447265625
1778601107664535416,0.118535416,2.8767709732055664,0.17647066712379456,9.5533447265625
1778601107675311406,0.12931140600000002,2.954537868499756,0.06580262631177902,9.620343208312988
1778601107686087395,0.140087395,2.954537868499756,0.06580262631177902,9.620343208312988
1778601107696863333,0.15086333300000002,2.710469961166382,0.10588239878416061,9.597611427307129
1778601107707639270,0.16163927,2.710469961166382,0.10588239878416061,9.597611427307129
1778601107718415260,0.17241526000000001,2.678765058517456,0.029910283163189888,9.540184020996094
1778601107729191145,0.183191145,2.678765058517456,0.029910283163189888,9.540184020996094
1778601107739967187,0.193967187,2.583052158355713,0.0729810893535614,9.549755096435547
1778601107750743125,0.20474312500000003,2.6183462142944336,0.14117653667926788,9.399605751037598
1778601107761519062,0.215519062,2.778067111968994,0.17288143932819366,9.589835166931152
1778601107772295000,0.22629500000000002,2.778067111968994,0.17288143932819366,9.589835166931152
1778601107783071041,0.237071041,2.840280532836914,0.22911277413368225,9.5324068069458
1778601107793846979,0.24784697900000002,2.840280532836914,0.22911277413368225,9.5324068069458
1778601107804622916,0.25862291600000004,2.840280532836914,0.22911277413368225,9.5324068069458
1778601107815398958,0.269398958,2.812762975692749,0.2925225794315338,9.501898765563965
1778601107826174895,0.28017489500000003,2.7774689197540283,0.28115665912628174,9.491130828857422
1778601107836950833,0.290950833,2.7774689197540283,0.3355933725833893,9.436694145202637
1778601107847726823,0.30172682300000003,2.699702262878418,0.24646073579788208,9.427123069763184
1778601107858502812,0.312502812,2.699702262878418,0.24646073579788208,9.427123069763184
1778601107869278750,0.32327875,2.6434707641601562,0.2309073805809021,9.403194427490234
1778601107880054791,0.334054791,2.602792739868164,0.2063809484243393,9.433703422546387
1778601107890830729,0.344830729,2.7218358516693115,0.20159530639648438,9.452845573425293
1778601107901606666,0.355606666,2.7218358516693115,0.20159530639648438,9.452845573425293
1778601107912382708,0.366382708,2.606980323791504,0.22133609652519226,9.490532875061035
1778601107923158645,0.377158645,2.606980323791504,0.22133609652519226,9.490532875061035
1778601107933934687,0.387934687,2.6500511169433594,0.24646073579788208,9.40917682647705
1778601107944710625,0.39871062500000004,2.620140790939331,0.267397940158844,9.43609619140625
1778601107955486666,0.409486666,2.767897605895996,0.14715859293937683,9.486345291137695
1778601107966262604,0.42026260400000004,2.758326292037964,0.1663011759519577,9.495916366577148
1778601107977038645,0.43103864500000005,2.799004316329956,0.1986042857170105,9.511469841003418
1778601107987814583,0.44181458300000004,2.799004316329956,0.1986042857170105,9.511469841003418
1778601107998590625,0.452590625,2.953341245651245,0.20159530639648438,9.454042434692383
1778601108009366666,0.46336666600000004,2.953341245651245,0.20159530639648438,9.454042434692383
1778601108020142604,0.474142604,2.8013970851898193,0.21774685382843018,9.503094673156738
1778601108030918645,0.48491864500000004,2.8013970851898193,0.21774685382843018,9.503094673156738
1778601108041694635,0.49569463500000005,3.0041887760162354,0.24646073579788208,9.565906524658203
1778601108052470625,0.5064706250000001,3.0041887760162354,0.24646073579788208,9.565906524658203
1778601108063246666,0.517246666,3.084348440170288,0.1824527233839035,9.601201057434082
1778601108074022708,0.5280227080000001,3.0077781677246094,0.17288143932819366,9.58325481414795
1778601108084798645,0.5387986450000001,2.8253252506256104,0.2021935135126114,9.522237777709961
1778601108095574687,0.549574687,2.8253252506256104,0.2021935135126114,9.522237777709961
1778601108106350729,0.560350729,2.94975209236145,0.2111666053533554,9.531808853149414
1778601108117126770,0.57112677,2.94975209236145,0.2111666053533554,9.531808853149414
1778601108127902708,0.581902708,2.9312076568603516,0.1698904037475586,9.541379928588867
1778601108138678750,0.59267875,2.9312076568603516,0.1698904037475586,9.541379928588867
1778601108149454791,0.603454791,2.6530420780181885,0.31465616822242737,9.479764938354492
1778601108160230833,0.614230833,2.6530420780181885,0.31465616822242737,9.479764938354492
1778601108171006875,0.6250068750000001,2.6937201023101807,0.33439695835113525,9.538389205932617
1778601108181782916,0.635782916,2.6937201023101807,0.33439695835113525,9.538389205932617
1778601108192558958,0.6465589580000001,2.6392834186553955,0.29790642857551575,9.457033157348633
1778601108203335000,0.657335,2.6392834186553955,0.29790642857551575,9.457033157348633
1778601108214111041,0.6681110410000001,2.7415764331817627,0.29312077164649963,9.430113792419434
1778601108224887083,0.678887083,2.7415764331817627,0.29312077164649963,9.430113792419434
1778601108235663125,0.689663125,2.8002007007598877,0.16390834748744965,9.495318412780762
1778601108246439166,0.700439166,2.8002007007598877,0.16390834748744965,9.495318412780762
1778601108257215208,0.711215208,2.7810580730438232,0.19740787148475647,9.462417602539062
1778601108267991250,0.7219912500000001,2.7810580730438232,0.19740787148475647,9.462417602539062
1778601108278767291,0.732767291,2.8420751094818115,0.15672987699508667,9.45583724975586
1778601108289543333,0.7435433330000001,2.8420751094818115,0.15672987699508667,9.45583724975586
1778601108300319427,0.7543194270000001,2.908475875854492,0.15553347766399384,9.57069206237793
1778601108311095520,0.76509552,2.908475875854492,0.15553347766399384,9.57069206237793
1778601108321871562,0.7758715620000001,2.857628345489502,0.18125630915164948,9.43489933013916
1778601108332647604,0.786647604,2.857628345489502,0.18125630915164948,9.43489933013916
1778601108343423645,0.7974236450000001,2.7631118297576904,0.21296121180057526,9.537193298339844
1778601108354199791,0.8081997910000001,2.7631118297576904,0.21296121180057526,9.537193298339844
1778601108364975833,0.8189758330000001,2.6596224308013916,0.2913261651992798,9.474979400634766
1778601108375751875,0.829751875,2.712862730026245,0.25004997849464417,9.578469276428223
1778601108386528020,0.84052802,2.664407968521118,0.27038896083831787,9.581459999084473
1778601108397304062,0.8513040620000001,2.664407968521118,0.27038896083831787,9.581459999084473
1778601108408080104,0.862080104,2.7559335231781006,0.15912270545959473,9.498309135437012
1778601108418856250,0.87285625,2.7559335231781006,0.15912270545959473,9.498309135437012
1778601108429632291,0.8836322910000001,2.8079774379730225,0.23210379481315613,9.43190860748291
1778601108440408437,0.8944084370000001,2.8079774379730225,0.23210379481315613,9.43190860748291
1778601108451184479,0.9051844790000001,2.8079774379730225,0.23210379481315613,9.43190860748291
1778601108461960625,0.9159606250000001,2.8079774379730225,0.23210379481315613,9.43190860748291
1778601108472736666,0.926736666,3.019144058227539,0.15732808411121368,9.440881729125977
1778601108483512812,0.937512812,3.019144058227539,0.15732808411121368,9.440881729125977
1778601108494288854,0.9482888540000001,2.8971099853515625,0.1621137410402298,9.484550476074219
1778601108505065000,0.9590650000000001,2.8498518466949463,0.18783657252788544,9.484550476074219
1778601108515841093,0.9698410930000001,2.806182861328125,0.22851456701755524,9.56052303314209
1778601108526617187,0.9806171870000001,2.7798616886138916,0.24466611444950104,9.491130828857422
1778601108537393333,0.9913933330000001,2.688934564590454,0.23688943684101105,9.476176261901855
1778601108548169479,1.002169479,2.554936408996582,0.25244277715682983,9.506684303283691
1778601108558945520,1.0129455200000002,2.626721143722534,0.268594354391098,9.535398483276367
1778601108569721666,1.0237216660000001,2.626721143722534,0.268594354391098,9.535398483276367
1778601108580497812,1.0344978120000001,2.7224340438842773,0.25304099917411804,9.527023315429688
1778601108591273854,1.0452738540000002,2.7224340438842773,0.25304099917411804,9.527023315429688
1778601108602050000,1.0560500000000002,2.954537868499756,0.17946170270442963,9.52941608428955
1778601108612826145,1.066826145,2.954537868499756,0.17946170270442963,9.52941608428955
1778601108623602291,1.077602291,2.9036903381347656,0.14297115802764893,9.495318412780762
1778601108634378437,1.088378437,2.9036903381347656,0.14297115802764893,9.495318412780762
1778601108645154531,1.0991545310000002,2.734398126602173,0.1824527233839035,9.388239860534668
1778601108655930729,1.109930729,2.734398126602173,0.1824527233839035,9.388239860534668
1778601108666706823,1.1207068230000001,2.806781053543091,0.18125630915164948,9.470193862915039
1778601108677482916,1.1314829160000002,2.806781053543091,0.18125630915164948,9.470193862915039
1778601108688259114,1.142259114,2.8175487518310547,0.21655045449733734,9.519845008850098
1778601108699035208,1.1530352080000001,2.8175487518310547,0.21655045449733734,9.519845008850098
1778601108709811406,1.163811406,3.0281169414520264,0.23330020904541016,9.45583724975586
1778601108720587500,1.1745875000000001,3.0281169414520264,0.23330020904541016,9.45583724975586
1778601108731363698,1.185363698,2.946761131286621,0.21176479756832123,9.54197883605957
1778601108742139791,1.196139791,2.946761131286621,0.21176479756832123,9.54197883605957
1778601108752915989,1.206915989,2.819343328475952,0.25244277715682983,9.488738059997559
1778601108763692187,1.2176921870000001,2.819343328475952,0.25244277715682983,9.488738059997559
1778601108774468333,1.2284683330000001,2.8654050827026367,0.19381862878799438,9.58205795288086
1778601108785244479,1.2392444790000001,2.843271493911743,0.1860419660806656,9.509675025939941
1778601108796020625,1.250020625,2.758326292037964,0.19202402234077454,9.53360366821289
1778601108806796770,1.26079677,2.6865415573120117,0.22073788940906525,9.506684303283691
1778601108817572968,1.271572968,2.8085756301879883,0.24047867953777313,9.505488395690918
1778601108828349166,1.2823491660000002,2.8085756301879883,0.24047867953777313,9.505488395690918
1778601108839125312,1.2931253120000001,2.80977201461792,0.22432711720466614,9.476176261901855
1778601108849901458,1.3039014580000001,2.80977201461792,0.22432711720466614,9.476176261901855
1778601108860677656,1.314677656,2.9485557079315186,0.24287149310112,9.518050193786621
1778601108871453854,1.325453854,2.9485557079315186,0.24287149310112,9.518050193786621
1778601108882230052,1.3362300520000001,2.840280532836914,0.22372891008853912,9.500103950500488
1778601108893006250,1.3470062500000002,2.840280532836914,0.22372891008853912,9.500103950500488
1778601108903782395,1.357782395,2.7810580730438232,0.22851456701755524,9.477970123291016
1778601108914558645,1.368558645,2.799004316329956,0.18903298676013947,9.514460563659668
1778601108925334791,1.379334791,2.9521448612213135,0.1902294009923935,9.516255378723145
1778601108936110937,1.390110937,2.9521448612213135,0.1902294009923935,9.516255378723145
1778601108946887187,1.4008871870000001,2.8755745887756348,0.21655045449733734,9.495318412780762
1778601108957663333,1.4116633330000001,2.8755745887756348,0.21655045449733734,9.495318412780762
1778601108968439583,1.422439583,2.710469961166382,0.3242274820804596,9.4061861038208
1778601108979215833,1.433215833,2.675773859024048,0.267397940158844,9.457033157348633
1778601108989991979,1.443991979,2.6596224308013916,0.24825534224510193,9.53659439086914
1778601109000768229,1.4547682290000001,2.6596224308013916,0.24825534224510193,9.53659439086914
1778601109011544427,1.465544427,2.7397818565368652,0.2721835672855377,9.489336013793945
1778601109022320625,1.476320625,2.7397818565368652,0.2721835672855377,9.489336013793945
1778601109033096823,1.4870968230000001,2.8558337688446045,0.2386840581893921,9.517452239990234
1778601109043873020,1.49787302,2.8558337688446045,0.2386840581893921,9.517452239990234
1778601109054649270,1.50864927,2.7080769538879395,0.27397820353507996,9.32602596282959
1778601109065425520,1.5194255200000002,2.7080769538879395,0.27397820353507996,9.32602596282959
1778601109076201718,1.530201718,2.854039192199707,0.2721835672855377,9.498309135437012
1778601109086977916,1.5409779160000001,2.820539712905884,0.2512463629245758,9.471389770507812
1778601109097754166,1.551754166,2.7601208686828613,0.2991028428077698,9.374481201171875
1778601109108530416,1.5625304160000002,2.6673989295959473,0.2955136001110077,9.375677108764648
1778601109119306614,1.573306614,2.648256540298462,0.31046873331069946,9.441479682922363
1778601109130082916,1.584082916,2.6626133918762207,0.3487538993358612,9.415757179260254
1778601109140859114,1.5948591140000001,2.8396823406219482,0.3517449200153351,9.43310546875
1778601109151635312,1.6056353120000002,2.854637384414673,0.3409772217273712,9.57069206237793
1778601109162411614,1.616411614,2.726621389389038,0.38703906536102295,9.519247055053711
1778601109173187812,1.627187812,2.726621389389038,0.38703906536102295,9.519247055053711
1778601109183964062,1.637964062,2.789433002471924,0.34217363595962524,9.605986595153809
1778601109194740312,1.6487403120000002,2.789433002471924,0.34217363595962524,9.605986595153809
1778601109205516562,1.659516562,2.895913600921631,0.3517449200153351,9.5324068069458
1778601109216292812,1.670292812,2.8564319610595703,0.28175488114356995,9.558130264282227
1778601109227069114,1.681069114,2.775076150894165,0.1950150430202484,9.506684303283691
1778601109237845312,1.691845312,2.682354211807251,0.1537388563156128,9.510273933410645
1778601109248621614,1.7026216140000001,2.6775684356689453,0.16869398951530457,9.448060035705566
1778601109259397812,1.7133978120000002,2.768495798110962,0.15254244208335876,9.464810371398926
1778601109270174114,1.7241741140000002,2.868396043777466,0.1663011759519577,9.474979400634766
1778601109280950312,1.734950312,3.0281169414520264,0.1333998590707779,9.550951957702637
1778601109291726614,1.745726614,3.0586254596710205,0.14476576447486877,9.572486877441406
1778601109302502916,1.756502916,3.0586254596710205,0.14476576447486877,9.572486877441406
1778601109313279218,1.767279218,2.9180471897125244,0.2560320198535919,9.591031074523926
1778601109324055416,1.7780554160000002,2.9180471897125244,0.2560320198535919,9.591031074523926
1778601109334831718,1.7888317180000002,2.7379872798919678,0.259621262550354,9.428318977355957
1778601109345608020,1.7996080200000002,2.7379872798919678,0.259621262550354,9.428318977355957
1778601109356384323,1.810384323,2.868396043777466,0.20997019112110138,9.565308570861816
1778601109367160625,1.821160625,2.868396043777466,0.20997019112110138,9.565308570861816
1778601109377936823,1.8319368230000002,2.7320053577423096,0.2638086974620819,9.511469841003418
1778601109388713125,1.8427131250000002,2.7320053577423096,0.2638086974620819,9.511469841003418
1778601109399489427,1.8534894270000002,2.7224340438842773,0.2847459018230438,9.589237213134766
1778601109410265729,1.8642657290000002,2.7224340438842773,0.2847459018230438,9.589237213134766
1778601109421042031,1.8750420310000002,2.7457640171051025,0.24646073579788208,9.588040351867676
1778601109431818333,1.885818333,2.7457640171051025,0.24646073579788208,9.588040351867676
1778601109442594635,1.896594635,2.7140591144561768,0.2225325107574463,9.497113227844238
1778601109453370937,1.907370937,2.7140591144561768,0.2225325107574463,9.497113227844238
1778601109464147239,1.918147239,2.819343328475952,0.19980068504810333,9.500701904296875
1778601109474923541,1.928923541,2.819343328475952,0.19980068504810333,9.500701904296875
1778601109485699843,1.939699843,3.077768087387085,0.1381855010986328,9.58325481414795
1778601109496476145,1.950476145,2.8911280632019043,0.1381855010986328,9.527023315429688
1778601109507252448,1.9612524480000002,2.744567632675171,0.1782652884721756,9.460622787475586
1778601109518028750,1.9720287500000002,2.744567632675171,0.1782652884721756,9.460622787475586
1778601109528805052,1.9828050520000002,2.6009981632232666,0.2548356056213379,9.468399047851562
1778601109539581354,1.993581354,2.6009981632232666,0.2548356056213379,9.468399047851562
1778601109550357656,2.0043576560000003,2.7726831436157227,0.27696922421455383,9.483952522277832
1778601109561134062,2.015134062,2.7726831436157227,0.27696922421455383,9.483952522277832
1778601109571910364,2.025910364,2.669193744659424,0.1986042857170105,9.552745819091797
1778601109582686666,2.036686666,2.669193744659424,0.1986042857170105,9.552745819091797
1778601109593462968,2.047462968,2.557927370071411,0.2476571500301361,9.43489933013916
1778601109604239270,2.05823927,2.557927370071411,0.2476571500301361,9.43489933013916
1778601109615015625,2.069015625,2.5878376960754395,0.18783657252788544,9.388837814331055
1778601109625791979,2.0797919790000003,2.5878376960754395,0.18783657252788544,9.388837814331055
1778601109636568281,2.090568281,2.6865415573120117,0.1950150430202484,9.474979400634766
1778601109647344583,2.101344583,2.6865415573120117,0.1950150430202484,9.474979400634766
1778601109658120885,2.112120885,2.610569477081299,0.27816563844680786,9.550951957702637
1778601109668897291,2.122897291,2.610569477081299,0.27816563844680786,9.550951957702637
1778601109679673593,2.133673593,2.7876384258270264,0.19740787148475647,9.535398483276367
1778601109690449895,2.144449895,2.7876384258270264,0.19740787148475647,9.535398483276367
1778601109701226302,2.155226302,2.925823926925659,0.16390834748744965,9.615557670593262
1778601109712002604,2.166002604,2.925823926925659,0.16390834748744965,9.615557670593262
1778601109722778906,2.176778906,2.6386852264404297,0.2763710021972656,9.462417602539062
1778601109733555312,2.187555312,2.6386852264404297,0.2763710021972656,9.462417602539062
1778601109744331614,2.198331614,2.795415163040161,0.2069791555404663,9.57188892364502
1778601109755107916,2.2091079160000002,2.812762975692749,0.23808585107326508,9.558130264282227
1778601109765884323,2.219884323,2.723630428314209,0.22372891008853912,9.56770133972168
1778601109776660625,2.230660625,2.6315066814422607,0.26440688967704773,9.56889820098877
1778601109787437031,2.2414370310000002,2.6123640537261963,0.3026920557022095,9.467203140258789
1778601109798213333,2.2522133330000003,2.7014968395233154,0.3026920557022095,9.476176261901855
1778601109808989687,2.262989687,2.806182861328125,0.24646073579788208,9.56052303314209
1778601109819766041,2.273766041,2.806182861328125,0.24646073579788208,9.56052303314209
1778601109830542395,2.2845423950000003,2.6775684356689453,0.22552353143692017,9.407382011413574
1778601109841318750,2.2953187500000003,2.6775684356689453,0.22552353143692017,9.407382011413574
1778601109852095104,2.306095104,2.6362924575805664,0.2829512655735016,9.407382011413574
1778601109862871458,2.316871458,2.6362924575805664,0.2829512655735016,9.407382011413574
1778601109873647812,2.327647812,2.806182861328125,0.1537388563156128,9.57487964630127
1778601109884424166,2.3384241660000002,2.806182861328125,0.1537388563156128,9.57487964630127
1778601109895200573,2.349200573,2.760719060897827,0.1950150430202484,9.537193298339844
1778601109905976875,2.359976875,2.760719060897827,0.1950150430202484,9.537193298339844
1778601109916753281,2.3707532810000003,2.6470601558685303,0.23688943684101105,9.487542152404785
1778601109927529583,2.3815295830000003,2.6470601558685303,0.23688943684101105,9.487542152404785
1778601109938305989,2.392305989,2.479562520980835,0.29730820655822754,9.471389770507812
1778601109949082395,2.403082395,2.5495524406433105,0.32183465361595154,9.404391288757324
1778601109959858698,2.4138586980000003,2.6662025451660156,0.2721835672855377,9.466604232788086
1778601109970635104,2.424635104,2.6662025451660156,0.2721835672855377,9.466604232788086
1778601109981411458,2.4354114580000004,2.710469961166382,0.2273181527853012,9.407979965209961
1778601109992187812,2.4461878120000002,2.710469961166382,0.2273181527853012,9.407979965209961
1778601110002964218,2.456964218,2.7218358516693115,0.25244277715682983,9.508479118347168
1778601110013740625,2.4677406250000002,2.6153552532196045,0.21954147517681122,9.43609619140625
1778601110024516979,2.478516979,2.648256540298462,0.18723836541175842,9.54796028137207
1778601110035293333,2.489293333,2.648256540298462,0.18723836541175842,9.54796028137207
1778601110046069739,2.500069739,2.6602206230163574,0.22552353143692017,9.538987159729004
1778601110056846145,2.5108461450000004,2.6602206230163574,0.22552353143692017,9.538987159729004
1778601110067622500,2.5216225000000003,2.7846474647521973,0.24526432156562805,9.585049629211426
1778601110078398854,2.532398854,2.877967357635498,0.21595224738121033,9.589237213134766
1778601110089175260,2.54317526,2.830709218978882,0.2273181527853012,9.575477600097656
1778601110099951666,2.553951666,2.830709218978882,0.2273181527853012,9.575477600097656
1778601110110728073,2.564728073,2.803191661834717,0.2626122832298279,9.517452239990234
1778601110121504479,2.575504479,2.813361167907715,0.3152543902397156,9.492327690124512
1778601110132280833,2.586280833,3.0311081409454346,0.2829512655735016,9.589835166931152
1778601110143057187,2.5970571870000003,3.0311081409454346,0.2829512655735016,9.589835166931152
1778601110153833593,2.607833593,2.998206853866577,0.275174617767334,9.550951957702637
1778601110164610000,2.6186100000000003,2.998206853866577,0.275174617767334,9.550951957702637
1778601110175386406,2.629386406,2.761915445327759,0.267397940158844,9.589237213134766
1778601110186162812,2.6401628120000002,2.761915445327759,0.267397940158844,9.589237213134766
1778601110196939218,2.650939218,2.661417007446289,0.28175488114356995,9.559326171875
1778601110207715625,2.6617156250000003,2.661417007446289,0.28175488114356995,9.559326171875
1778601110218492031,2.672492031,2.6596224308013916,0.2829512655735016,9.528818130493164
1778601110229268437,2.683268437,2.6596224308013916,0.2829512655735016,9.528818130493164
1778601110240044843,2.6940448430000004,2.696112871170044,0.27397820353507996,9.505488395690918
1778601110250821250,2.70482125,2.696112871170044,0.27397820353507996,9.505488395690918
1778601110261597656,2.7155976560000004,2.778067111968994,0.22073788940906525,9.626325607299805
1778601110272374062,2.726374062,2.778067111968994,0.22073788940906525,9.626325607299805
1778601110283150468,2.7371504680000003,2.6075785160064697,0.27816563844680786,9.483952522277832
1778601110293926875,2.747926875,2.6075785160064697,0.27816563844680786,9.483952522277832
1778601110304703281,2.7587032810000003,2.507079839706421,0.2925225794315338,9.494122505187988
1778601110315479687,2.769479687,2.4670002460479736,0.32662028074264526,9.445667266845703
1778601110326256145,2.780256145,2.6434707641601562,0.32303106784820557,9.511469841003418
1778601110337032604,2.791032604,2.682354211807251,0.27816563844680786,9.479764938354492
1778601110347808958,2.801808958,2.641077995300293,0.2883351147174835,9.424132347106934
1778601110358585416,2.812585416,2.641077995300293,0.2883351147174835,9.424132347106934
1778601110369361823,2.8233618230000004,2.5082762241363525,0.32602208852767944,9.44447135925293
1778601110380138229,2.834138229,2.5351955890655518,0.2955136001110077,9.428318977355957
1778601110390914687,2.844914687,2.571686029434204,0.2715853750705719,9.508479118347168
1778601110401691041,2.855691041,2.571686029434204,0.2715853750705719,9.508479118347168
1778601110412467500,2.8664675,2.6291139125823975,0.31465616822242737,9.484550476074219
1778601110423243958,2.877243958,2.6291139125823975,0.31465616822242737,9.484550476074219
1778601110434020364,2.8880203640000004,2.6739792823791504,0.24167509377002716,9.522237777709961
1778601110444796770,2.89879677,2.6739792823791504,0.24167509377002716,9.522237777709961
1778601110455573229,2.9095732290000003,2.6662025451660156,0.2147558331489563,9.467203140258789
1778601110466349687,2.9203496870000003,2.6662025451660156,0.2147558331489563,9.467203140258789
1778601110477126093,2.931126093,2.8115665912628174,0.1860419660806656,9.56052303314209
1778601110487902500,2.9419025000000003,2.8115665912628174,0.1860419660806656,9.56052303314209
1778601110498678958,2.9526789580000004,2.5914268493652344,0.268594354391098,9.540184020996094
1778601110509455416,2.9634554160000004,2.5914268493652344,0.268594354391098,9.540184020996094
1778601110520231823,2.974231823,2.4765713214874268,0.3409772217273712,9.565906524658203
1778601110531008229,2.9850082290000004,2.4765713214874268,0.3409772217273712,9.565906524658203
1778601110541784687,2.995784687,2.6362924575805664,0.3601198196411133,9.484550476074219
1778601110552561145,3.006561145,2.6362924575805664,0.3601198196411133,9.484550476074219
1778601110563337604,3.017337604,2.8325037956237793,0.2829512655735016,9.5533447265625
1778601110574114062,3.028114062,2.8325037956237793,0.2829512655735016,9.5533447265625
1778601110584890468,3.0388904680000004,2.5669004917144775,0.29790642857551575,9.483952522277832
1778601110595666875,3.049666875,2.5669004917144775,0.29790642857551575,9.483952522277832
1778601110606443333,3.0604433330000003,2.5387847423553467,0.3008974492549896,9.44327449798584
1778601110617219791,3.0712197910000003,2.5387847423553467,0.3008974492549896,9.44327449798584
1778601110627996250,3.08199625,2.6865415573120117,0.28953152894973755,9.589237213134766
1778601110638772708,3.092772708,2.6865415573120117,0.28953152894973755,9.589237213134766
1778601110649549114,3.103549114,2.531008243560791,0.3242274820804596,9.457033157348633
1778601110660325520,3.1143255200000004,2.531008243560791,0.3242274820804596,9.457033157348633
1778601110671101979,3.125101979,2.499901533126831,0.2548356056213379,9.42353343963623
1778601110681878437,3.135878437,2.499901533126831,0.2548356056213379,9.42353343963623
1778601110692654895,3.146654895,2.801995277404785,0.26201409101486206,9.511469841003418
1778601110703431354,3.1574313540000003,2.801995277404785,0.26201409101486206,9.511469841003418
1778601110714207760,3.16820776,2.7080769538879395,0.25782662630081177,9.498908042907715
1778601110724984166,3.1789841660000002,2.7080769538879395,0.25782662630081177,9.498908042907715
1778601110735760677,3.189760677,2.4765713214874268,0.2667997181415558,9.357132911682129
1778601110746537083,3.2005370830000004,2.4765713214874268,0.2667997181415558,9.357132911682129
1778601110757313541,3.211313541,2.6327030658721924,0.23330020904541016,9.572486877441406
1778601110768090000,3.22209,2.6327030658721924,0.23330020904541016,9.572486877441406
1778601110778866458,3.232866458,2.705684185028076,0.3451646566390991,9.516255378723145
1778601110789642916,3.243642916,2.705684185028076,0.3451646566390991,9.516255378723145
1778601110800419323,3.254419323,2.703291416168213,0.3577269911766052,9.594620704650879
1778601110811195833,3.2651958330000004,2.703291416168213,0.3577269911766052,9.594620704650879
1778601110821972239,3.275972239,2.7966115474700928,0.24945175647735596,9.614959716796875
1778601110832748645,3.2867486450000003,2.7966115474700928,0.24945175647735596,9.614959716796875
1778601110843525104,3.297525104,2.779263496398926,0.1902294009923935,9.649057388305664
1778601110854301562,3.308301562,2.779263496398926,0.1902294009923935,9.649057388305664
1778601110865078020,3.31907802,2.6452653408050537,0.27337998151779175,9.516255378723145
1778601110875854479,3.329854479,2.6452653408050537,0.27337998151779175,9.516255378723145
1778601110886630885,3.3406308850000004,2.775076150894165,0.28115665912628174,9.591031074523926
1778601110897407291,3.351407291,2.775076150894165,0.28115665912628174,9.591031074523926
1778601110908183750,3.3621837500000002,2.9168508052825928,0.267397940158844,9.525827407836914
1778601110918960208,3.3729602080000003,2.9168508052825928,0.267397940158844,9.525827407836914
1778601110929736666,3.3837366660000003,2.717050075531006,0.2763710021972656,9.53360366821289
1778601110940513125,3.394513125,2.717050075531006,0.2763710021972656,9.53360366821289
1778601110951289583,3.405289583,2.593221426010132,0.3774677813053131,9.471988677978516
1778601110962066041,3.416066041,2.593221426010132,0.3774677813053131,9.471988677978516
1778601110972842448,3.4268424480000004,2.62313175201416,0.3601198196411133,9.495318412780762
1778601110983618854,3.437618854,2.62313175201416,0.3601198196411133,9.495318412780762
1778601110994395312,3.448395312,2.6153552532196045,0.3248256742954254,9.487542152404785
1778601111005171770,3.45917177,2.6153552532196045,0.3248256742954254,9.487542152404785
1778601111015948229,3.4699482290000003,2.54536509513855,0.3152543902397156,9.428318977355957
1778601111026724687,3.4807246870000004,2.54536509513855,0.3152543902397156,9.428318977355957
1778601111037501093,3.491501093,2.6805596351623535,0.22911277413368225,9.476176261901855
1778601111048277500,3.5022775000000004,2.6805596351623535,0.22911277413368225,9.476176261901855
1778601111059054010,3.5130540100000003,2.7349963188171387,0.23808585107326508,9.500701904296875
1778601111069830416,3.523830416,2.7349963188171387,0.23808585107326508,9.500701904296875
1778601111080606875,3.534606875,2.8325037956237793,0.2560320198535919,9.482755661010742
1778601111091383333,3.545383333,2.9665019512176514,0.21655045449733734,9.594620704650879
1778601111102159791,3.5561597910000002,2.854637384414673,0.2913261651992798,9.572486877441406
1778601111112936250,3.5669362500000004,2.6967110633850098,0.3008974492549896,9.55633544921875
1778601111123712656,3.577712656,2.6769702434539795,0.33918261528015137,9.56052303314209
1778601111134489062,3.5884890620000003,2.6769702434539795,0.33918261528015137,9.56052303314209
1778601111145265520,3.5992655200000003,2.53399920463562,0.3086741268634796,9.518050193786621
1778601111156041979,3.610041979,2.6536402702331543,0.31345975399017334,9.495916366577148
1778601111166818437,3.620818437,2.740978240966797,0.2787638306617737,9.548559188842773
1778601111177594895,3.631594895,2.740978240966797,0.2787638306617737,9.548559188842773
1778601111188371302,3.6423713020000004,2.586641311645508,0.29312077164649963,9.45763111114502
1778601111199147708,3.653147708,2.586641311645508,0.29312077164649963,9.45763111114502
1778601111209924166,3.663924166,2.669193744659424,0.243469700217247,9.531808853149414
1778601111220700625,3.6747006250000003,2.5704896450042725,0.26560330390930176,9.437891006469727
1778601111231477083,3.6854770830000003,2.5597219467163086,0.28115665912628174,9.452845573425293
1778601111242253541,3.6962535410000004,2.5597219467163086,0.28115665912628174,9.452845573425293
1778601111253029948,3.707029948,2.654836654663086,0.3361915946006775,9.479166984558105
1778601111263806354,3.7178063540000004,2.654836654663086,0.3361915946006775,9.479166984558105
1778601111274582812,3.7285828120000004,2.6841487884521484,0.2991028428077698,9.504889488220215
1778601111285359270,3.73935927,2.6841487884521484,0.2991028428077698,9.504889488220215
1778601111296135677,3.7501356770000003,2.6530420780181885,0.37447673082351685,9.455238342285156
1778601111306912187,3.760912187,2.6530420780181885,0.37447673082351685,9.455238342285156
1778601111317688593,3.7716885930000004,2.62313175201416,0.3481557071208954,9.477970123291016
1778601111328465000,3.782465,2.62313175201416,0.3481557071208954,9.477970123291016
1778601111339241458,3.7932414580000002,2.6356940269470215,0.40319061279296875,9.489336013793945
1778601111350017916,3.8040179160000003,2.6356940269470215,0.40319061279296875,9.489336013793945
1778601111360794323,3.814794323,2.7631118297576904,0.4007977843284607,9.511469841003418
1778601111371570729,3.8255707290000003,2.7631118297576904,0.4007977843284607,9.511469841003418
1778601111382347239,3.836347239,2.7110681533813477,0.41994038224220276,9.481559753417969
1778601111393123645,3.8471236450000004,2.7110681533813477,0.41994038224220276,9.481559753417969
1778601111403900104,3.857900104,2.7349963188171387,0.4773681163787842,9.462417602539062
1778601111414676145,3.8686761450000002,2.648256540298462,0.4462614357471466,9.44746208190918
1778601111425452968,3.8794529680000003,2.6434707641601562,0.46061834692955017,9.438488960266113
1778601111436229375,3.890229375,2.6434707641601562,0.46061834692955017,9.438488960266113
1778601111447005833,3.901005833,2.7732813358306885,0.5180460810661316,9.501898765563965
1778601111457782291,3.911782291,2.7732813358306885,0.5180460810661316,9.501898765563965
1778601111468558698,3.9225586980000005,2.779263496398926,0.5048855543136597,9.513264656066895
1778601111479335104,3.933335104,2.6500511169433594,0.5000999569892883,9.538987159729004
1778601111490111562,3.9441115620000002,2.620140790939331,0.5479564070701599,9.573683738708496
1778601111500888020,3.9548880200000003,2.565704107284546,0.5700899958610535,9.528818130493164
1778601111511664427,3.965664427,2.544766902923584,0.544965386390686,9.488738059997559
1778601111522440937,3.9764409370000005,2.5262224674224854,0.5497509837150574,9.517452239990234
1778601111533217343,3.987217343,2.589632272720337,0.5162515044212341,9.561120986938477
1778601111543993750,3.9979937500000005,2.589632272720337,0.5162515044212341,9.561120986938477
1778601111554770208,4.0087702080000005,2.5944180488586426,0.5210371017456055,9.564111709594727
1778601111565546666,4.019546666,2.5944180488586426,0.5210371017456055,9.564111709594727
1778601111576323073,4.030323073,2.7224340438842773,0.486939400434494,9.608977317810059
1778601111587099479,4.0410994790000005,2.7224340438842773,0.486939400434494,9.608977317810059
1778601111597875937,4.051875937,2.806781053543091,0.48454657196998596,9.43310546875
1778601111608652395,4.062652395000001,2.806781053543091,0.48454657196998596,9.43310546875
1778601111619428802,4.0734288020000005,2.6452653408050537,0.5060819983482361,9.601201057434082
1778601111630205208,4.084205208,2.6452653408050537,0.5060819983482361,9.601201057434082
1778601111640981666,4.094981666000001,2.5597219467163086,0.5682953596115112,9.522237777709961
1778601111651758125,4.105758125,2.5597219467163086,0.5682953596115112,9.522237777709961
1778601111662534531,4.116534531,2.8013970851898193,0.4588237404823303,9.476176261901855
1778601111673310937,4.127310937,2.8013970851898193,0.4588237404823303,9.476176261901855
1778601111684087395,4.138087395,2.8767709732055664,0.43190449476242065,9.5862455368042
1778601111694863854,4.148863854,2.861217737197876,0.43489551544189453,9.540184020996094
1778601111705640260,4.159640260000001,2.7457640171051025,0.49172505736351013,9.489336013793945
1778601111716416666,4.170416666,2.7457640171051025,0.49172505736351013,9.489336013793945
1778601111727193125,4.181193125,2.92283296585083,0.380458801984787,9.479166984558105
1778601111737969583,4.1919695830000006,2.92283296585083,0.380458801984787,9.479166984558105
1778601111748745989,4.202745989,2.9353952407836914,0.4253242313861847,9.56889820098877
1778601111759522395,4.213522395,2.8384859561920166,0.40797626972198486,9.469595909118652
1778601111770298802,4.224298802,2.779263496398926,0.4265206456184387,9.561120986938477
1778601111781075312,4.235075312,2.779263496398926,0.4265206456184387,9.561120986938477
1778601111791851718,4.245851718,2.613560438156128,0.42831525206565857,9.579665184020996
1778601111802628125,4.256628125000001,2.613560438156128,0.42831525206565857,9.579665184020996
1778601111813404583,4.267404583,2.4777679443359375,0.4061816334724426,9.471988677978516
1778601111824181041,4.278181041,2.373081922531128,0.3720839321613312,9.441479682922363
1778601111834957448,4.288957448000001,2.373081922531128,0.3720839321613312,9.441479682922363
1778601111845733854,4.299733854,2.507079839706421,0.3529413342475891,9.424132347106934
1778601111856510312,4.310510312,2.7074787616729736,0.3074777126312256,9.438488960266113
1778601111867286770,4.32128677,2.7074787616729736,0.3074777126312256,9.438488960266113
1778601111878063177,4.332063177,2.846860647201538,0.18783657252788544,9.380462646484375
1778601111888839583,4.342839583,2.888136863708496,0.17108681797981262,9.4061861038208
1778601111899616041,4.353616041,2.7870402336120605,0.1459621787071228,9.388837814331055
1778601111910392500,4.3643925,2.7870402336120605,0.1459621787071228,9.388837814331055
1778601111921168854,4.375168854,2.321636199951172,0.17168502509593964,9.343972206115723
1778601111931945312,4.3859453120000005,2.321636199951172,0.17168502509593964,9.343972206115723
1778601111942721718,4.396721718,2.217548370361328,0.13938191533088684,9.32602596282959
1778601111953498125,4.407498125,2.1589243412017822,0.14476576447486877,9.394820213317871
1778601111964274583,4.4182745830000005,2.1607189178466797,0.11545369029045105,9.42891788482666
1778601111975051041,4.429051041,2.1607189178466797,0.11545369029045105,9.42891788482666
1778601111985827448,4.439827448,2.03629207611084,0.17288143932819366,9.40917682647705
1778601111996603854,4.450603854000001,2.03629207611084,0.17288143932819366,9.40917682647705
1778601112007380312,4.461380312,2.42093825340271,0.06580262631177902,9.419346809387207
1778601112018156770,4.472156770000001,2.42093825340271,0.06580262631177902,9.419346809387207
1778601112028933125,4.482933125000001,3.232105255126953,-0.03409772366285324,9.689735412597656
1778601112039709583,4.493709583,3.232105255126953,-0.03409772366285324,9.689735412597656
1778601112050486041,4.504486041000001,3.318246841430664,-0.10468599200248718,9.662816047668457
1778601112061262395,4.515262395000001,3.318246841430664,-0.10468599200248718,9.662816047668457
1778601112072038854,4.526038854,2.768495798110962,-0.06161518394947052,9.701101303100586
1778601112082815312,4.536815312,2.768495798110962,-0.06161518394947052,9.701101303100586
1778601112093591562,4.547591562,2.3635106086730957,-0.04546362906694412,9.592825889587402
1778601112104368125,4.558368125,2.3635106086730957,-0.04546362906694412,9.592825889587402
1778601112115144531,4.569144531,1.9932212829589844,0.10767702013254166,9.596415519714355
1778601112125920937,4.579920937000001,1.9932212829589844,0.10767702013254166,9.596415519714355
1778601112136697395,4.590697395,2.1206390857696533,0.1824527233839035,9.524630546569824
1778601112147473854,4.601473854,2.6327030658721924,-0.0323031060397625,9.588040351867676
1778601112158250260,4.612250260000001,2.6841487884521484,-0.04546362906694412,9.57188892364502
1778601112169026666,4.623026666,2.6841487884521484,-0.04546362906694412,9.57188892364502
1778601112179803073,4.633803073,2.4777679443359375,-0.017946170642971992,9.647262573242188
1778601112190579479,4.644579479,2.4777679443359375,-0.017946170642971992,9.647262573242188
1778601112201355937,4.655355937,2.186441659927368,0.1495514214038849,9.694520950317383
1778601112212132395,4.666132395,2.186441659927368,0.1495514214038849,9.694520950317383
1778601112222908802,4.676908802000001,2.490330219268799,0.2386840581893921,9.7669038772583
1778601112233685208,4.687685208,2.490330219268799,0.2386840581893921,9.7669038772583
1778601112244461614,4.698461614,2.627917528152466,0.20997019112110138,9.696913719177246
1778601112255238020,4.70923802,2.6554348468780518,0.24526432156562805,9.601201057434082
1778601112266014479,4.7200144790000005,2.7966115474700928,0.1698904037475586,9.645467758178711
1778601112276790937,4.730790937,2.7966115474700928,0.1698904037475586,9.645467758178711
1778601112287567343,4.741567343000001,2.609971284866333,0.10767702013254166,9.716055870056152
1778601112298343750,4.7523437500000005,2.609971284866333,0.10767702013254166,9.716055870056152
1778601112309120156,4.763120156,2.4191436767578125,0.25722843408584595,9.747162818908691
1778601112319896562,4.773896562,2.358126640319824,0.3409772217273712,9.774680137634277
1778601112330673020,4.7846730200000005,2.2271196842193604,0.3409772217273712,9.681958198547363
1778601112341449375,4.7954493750000005,2.105085611343384,0.33738797903060913,9.555737495422363
1778601112352225833,4.806225833,2.1158533096313477,0.29730820655822754,9.576674461364746
1778601112363002291,4.8170022910000005,2.0057835578918457,0.22432711720466614,9.57487964630127
1778601112373778698,4.827778698,1.9453648328781128,0.19680966436862946,9.385248184204102
1778601112384555104,4.838555104,1.9453648328781128,0.19680966436862946,9.385248184204102
1778601112395331510,4.849331510000001,1.851446509361267,0.14297115802764893,9.390034675598145
1778601112406107916,4.8601079160000005,1.851446509361267,0.14297115802764893,9.390034675598145
1778601112416884323,4.870884323,2.1780667304992676,0.20997019112110138,9.489336013793945
1778601112427660729,4.881660729,2.1780667304992676,0.20997019112110138,9.489336013793945
1778601112438437187,4.8924371870000005,2.1750757694244385,0.34576287865638733,9.534201622009277
1778601112449213541,4.903213541,2.1750757694244385,0.34576287865638733,9.534201622009277
1778601112459990000,4.91399,2.252842426300049,0.519242525100708,9.484550476074219
1778601112470766458,4.924766458000001,2.252842426300049,0.519242525100708,9.484550476074219
1778601112481542812,4.9355428120000004,2.462214469909668,0.4534398913383484,9.57069206237793
1778601112492319270,4.94631927,2.462214469909668,0.4534398913383484,9.57069206237793
1778601112503095677,4.957095677,2.8689942359924316,0.33379876613616943,9.862616539001465
1778601112513872083,4.9678720830000005,2.8689942359924316,0.33379876613616943,9.862616539001465
1778601112524648489,4.978648489,2.516651153564453,0.47976094484329224,9.570094108581543
1778601112535424895,4.989424895,2.516651153564453,0.47976094484329224,9.570094108581543
1778601112546201302,5.000201302000001,2.4430718421936035,0.48454657196998596,9.58205795288086
1778601112556977708,5.010977708,2.4430718421936035,0.48454657196998596,9.58205795288086
1778601112567754114,5.021754114,2.108076810836792,0.4875376224517822,9.67238712310791
1778601112578530520,5.03253052,2.108076810836792,0.4875376224517822,9.67238712310791
1778601112589306927,5.043306927000001,2.750549554824829,0.3852444589138031,9.634101867675781
1778601112600083333,5.054083333,2.750549554824829,0.3852444589138031,9.634101867675781
1778601112610859739,5.064859739,3.1381869316101074,0.38703906536102295,9.940383911132812
1778601112621636145,5.075636145000001,3.1381869316101074,0.38703906536102295,9.940383911132812
1778601112632412604,5.086412604,2.667997360229492,0.5988038778305054,9.787840843200684
1778601112643188958,5.097188958,2.667997360229492,0.5988038778305054,9.787840843200684
1778601112653965416,5.107965416000001,2.6835505962371826,0.5688936114311218,9.726823806762695
1778601112664741770,5.118741770000001,2.6835505962371826,0.5688936114311218,9.726823806762695
1778601112675518229,5.129518229,2.6213371753692627,0.544965386390686,9.915258407592773
1778601112686294583,5.140294583,2.6213371753692627,0.544965386390686,9.915258407592773
1778601112697071041,5.151071041000001,2.3407788276672363,0.36729827523231506,9.857233047485352
1778601112707847395,5.161847395000001,2.3407788276672363,0.36729827523231506,9.857233047485352
1778601112718623854,5.172623854,2.2654049396514893,0.18125630915164948,10.03131103515625
1778601112729400208,5.183400208,2.2654049396514893,0.18125630915164948,10.03131103515625
1778601112740176666,5.194176666000001,2.32761812210083,0.1537388563156128,9.792028427124023
1778601112750953125,5.204953125,2.32761812210083,0.1537388563156128,9.792028427124023
1778601112761729479,5.215729479,2.6841487884521484,0.08255238085985184,9.790233612060547
1778601112772505833,5.226505833,2.6841487884521484,0.08255238085985184,9.790233612060547
1778601112783282291,5.2372822910000005,2.7188446521759033,0.09032905846834183,9.57069206237793
1778601112794058750,5.24805875,2.7188446521759033,0.09032905846834183,9.57069206237793
1778601112804835104,5.258835104,2.8348965644836426,0.26440688967704773,9.66102123260498
1778601112815611562,5.269611562000001,3.01196551322937,0.388235479593277,9.611968994140625
1778601112826387916,5.2803879160000005,3.116053342819214,0.4713860750198364,9.55633544921875
1778601112837164270,5.29116427,3.116053342819214,0.4713860750198364,9.55633544921875
1778601112847940729,5.301940729,3.401397466659546,0.3595215976238251,9.53659439086914
1778601112858717083,5.312717083,3.339184045791626,0.39840495586395264,9.552745819091797
1778601112869493541,5.323493541,3.032902717590332,0.5587241053581238,9.564111709594727
1778601112880269895,5.334269895,2.641077995300293,0.6520441770553589,9.462417602539062
1778601112891046302,5.345046302,2.589632272720337,0.6119644045829773,9.438488960266113
1778601112901822708,5.355822708000001,2.6195425987243652,0.5030909776687622,9.672985076904297
1778601112912599114,5.3665991140000004,2.5597219467163086,0.3535395562648773,9.723235130310059
1778601112923375520,5.37737552,2.6386852264404297,0.3002992272377014,9.650253295898438
1778601112934151927,5.388151927,2.788834810256958,0.2626122832298279,9.667601585388184
1778601112944928333,5.398928333000001,2.788834810256958,0.2626122832298279,9.667601585388184
1778601112955704739,5.409704739,2.954537868499756,0.29730820655822754,9.431310653686523
1778601112966481145,5.420481145,2.954537868499756,0.29730820655822754,9.431310653686523
1778601112977257552,5.431257552,2.736790895462036,0.19980068504810333,9.403194427490234
1778601112988033958,5.442033958000001,2.736790895462036,0.19980068504810333,9.403194427490234
1778601112998810364,5.452810364,2.964108943939209,-0.12801600992679596,9.436694145202637
1778601113009586770,5.46358677,2.964108943939209,-0.12801600992679596,9.436694145202637
1778601113020363125,5.474363125,3.039483070373535,-0.17108681797981262,9.613164901733398
1778601113031139583,5.4851395830000005,3.039483070373535,-0.17108681797981262,9.613164901733398
1778601113041915937,5.495915937,2.854039192199707,-0.13519448041915894,9.634101867675781
1778601113052692291,5.506692291,2.854039192199707,-0.13519448041915894,9.634101867675781
1778601113063468698,5.517468698,2.492722988128662,-0.09511470049619675,9.500701904296875
1778601113074245104,5.528245104000001,2.492722988128662,-0.09511470049619675,9.500701904296875
1778601113085021510,5.53902151,2.1714866161346436,0.0023928226437419653,9.257830619812012
1778601113095797916,5.549797916,2.2510478496551514,0.02632104977965355,9.237491607666016
1778601113106574323,5.560574323,2.241476535797119,-0.028115665540099144,9.32004451751709
1778601113117350729,5.571350729000001,2.241476535797119,-0.028115665540099144,9.32004451751709
1778601113128127135,5.582127135,2.3778674602508545,-0.11246266216039658,9.415757179260254
1778601113138903541,5.592903541,2.3778674602508545,-0.11246266216039658,9.415757179260254
1778601113149679895,5.603679895,2.657827854156494,-0.23988047242164612,9.316454887390137
1778601113160456250,5.61445625,2.657827854156494,-0.23988047242164612,9.316454887390137
1778601113171232656,5.6252326560000006,2.624328136444092,-0.24646073579788208,9.375677108764648
1778601113182009062,5.636009062,2.624328136444092,-0.24646073579788208,9.375677108764648
1778601113192785468,5.646785468,2.4430718421936035,-0.08255238085985184,9.285347938537598
1778601113203561875,5.657561875000001,2.4430718421936035,-0.08255238085985184,9.285347938537598
1778601113214338281,5.6683382810000005,2.48315167427063,-0.0011964113218709826,9.356534957885742
1778601113225114687,5.679114687,2.48315167427063,-0.0011964113218709826,9.356534957885742
1778601113235891041,5.689891041,2.372483730316162,-0.13459627330303192,9.388837814331055
1778601113246667395,5.700667395,2.372483730316162,-0.13459627330303192,9.388837814331055
1778601113257443854,5.7114438540000005,2.3952155113220215,-0.1459621787071228,9.387042999267578
1778601113268220208,5.722220208,2.3952155113220215,-0.1459621787071228,9.387042999267578
1778601113278996614,5.732996614,2.4191436767578125,-0.007178467698395252,9.519845008850098
1778601113289773020,5.743773020000001,2.431705951690674,0.11425728350877762,9.442676544189453
1778601113300549427,5.754549427000001,2.5286152362823486,0.25722843408584595,9.43609619140625
1778601113311325833,5.765325833,2.5286152362823486,0.25722843408584595,9.43609619140625
1778601113322102187,5.776102187,2.5082762241363525,0.45583271980285645,9.623334884643555
1778601113332878541,5.786878541,2.5082762241363525,0.45583271980285645,9.623334884643555
1778601113343655000,5.797655000000001,2.1194427013397217,0.27816563844680786,9.631111145019531
1778601113354431354,5.8084313540000005,2.1194427013397217,0.27816563844680786,9.631111145019531
1778601113365207760,5.81920776,2.129014015197754,0.14117653667926788,9.56770133972168
1778601113375984166,5.829984166,2.129014015197754,0.14117653667926788,9.56770133972168
1778601113386760573,5.840760573000001,2.2845473289489746,0.048454657196998596,9.433703422546387
1778601113397536979,5.8515369790000005,2.2845473289489746,0.048454657196998596,9.433703422546387
1778601113408313333,5.862313333,2.2821545600891113,-0.09930214285850525,9.480961799621582
1778601113419089687,5.873089687,2.2821545600891113,-0.09930214285850525,9.480961799621582
1778601113429866093,5.883866093,2.1720848083496094,0.037088751792907715,9.430113792419434
1778601113440642500,5.894642500000001,2.1720848083496094,0.037088751792907715,9.430113792419434
1778601113451418906,5.905418906,2.0231316089630127,0.13280165195465088,9.457033157348633
1778601113462195312,5.916195312,2.0231316089630127,0.13280165195465088,9.457033157348633
1778601113472971666,5.926971666,2.101496458053589,0.20159530639648438,9.513264656066895
1778601113483748020,5.937748020000001,2.101496458053589,0.20159530639648438,9.513264656066895
1778601113494524427,5.948524427000001,2.176870346069336,0.3038884699344635,9.527621269226074
1778601113505300833,5.959300833,2.176870346069336,0.3038884699344635,9.527621269226074
1778601113516077239,5.970077239,2.1122641563415527,0.25423741340637207,9.57069206237793
1778601113526853645,5.980853645000001,2.1122641563415527,0.25423741340637207,9.57069206237793
1778601113537630000,5.991630000000001,2.337787628173828,0.33379876613616943,9.479166984558105
1778601113548406354,6.0024063540000006,2.310868501663208,0.32123643159866333,9.416953086853027
1778601113559182760,6.01318276,2.42512583732605,0.27696922421455383,9.413962364196777
1778601113569959166,6.023959166,2.42512583732605,0.27696922421455383,9.413962364196777
1778601113580735573,6.034735573000001,2.4777679443359375,0.3690928816795349,9.620343208312988
1778601113591511979,6.0455119790000005,2.4777679443359375,0.3690928816795349,9.620343208312988
1778601113602288385,6.056288385,2.438286304473877,0.544965386390686,9.65384292602539
1778601113613064791,6.067064791,2.438286304473877,0.544965386390686,9.65384292602539
1778601113623841145,6.077841145000001,2.026122570037842,0.6783652305603027,9.577272415161133
1778601113634617500,6.088617500000001,2.026122570037842,0.6783652305603027,9.577272415161133
1778601113645393906,6.099393906,2.0404794216156006,0.6263213157653809,9.479166984558105
1778601113656170312,6.110170312,2.045863389968872,0.5940182209014893,9.527023315429688
1778601113666946718,6.120946718000001,2.1577277183532715,0.5874379873275757,9.573683738708496
1778601113677723125,6.131723125000001,2.1577277183532715,0.5874379873275757,9.573683738708496
1778601113688499479,6.1424994790000005,2.0985054969787598,0.5593222975730896,9.677172660827637
1778601113699275833,6.153275833,1.908874273300171,0.5174478888511658,9.763314247131348
1778601113710052239,6.164052239,1.6402798891067505,0.6340979933738708,9.629914283752441
1778601113720828645,6.174828645000001,1.6402798891067505,0.6340979933738708,9.629914283752441
1778601113731605052,6.1856050520000005,2.4777679443359375,0.33080771565437317,9.67238712310791
1778601113742381458,6.196381458,2.4777679443359375,0.33080771565437317,9.67238712310791
1778601113753157812,6.207157812,2.4717857837677,0.17288143932819366,9.862616539001465
1778601113763934166,6.217934166,2.4717857837677,0.17288143932819366,9.862616539001465
1778601113774710573,6.228710573000001,1.7988044023513794,0.2147558331489563,9.442676544189453
1778601113785486979,6.2394869790000005,1.7988044023513794,0.2147558331489563,9.442676544189453
1778601113796263385,6.250263385,2.215155601501465,0.18305093050003052,9.65503978729248
1778601113807039791,6.261039791,2.215155601501465,0.18305093050003052,9.65503978729248
1778601113817816145,6.271816145000001,2.6291139125823975,0.0771685317158699,9.777671813964844
1778601113828592500,6.282592500000001,2.6291139125823975,0.0771685317158699,9.777671813964844
1778601113839368906,6.293368906,3.0269205570220947,-0.0568295381963253,9.847661972045898
1778601113850145312,6.304145312,3.0269205570220947,-0.0568295381963253,9.847661972045898
1778601113860921718,6.314921718000001,3.1621150970458984,-0.25782662630081177,9.929018020629883
1778601113871698125,6.325698125000001,3.1621150970458984,-0.25782662630081177,9.929018020629883
1778601113882474479,6.3364744790000005,2.9449665546417236,-0.24825534224510193,9.881160736083984
1778601113893250833,6.347250833,2.9449665546417236,-0.24825534224510193,9.881160736083984
1778601113904027239,6.358027239,2.74755859375,-0.07058826833963394,9.771689414978027
1778601113914803645,6.368803645000001,2.74755859375,-0.07058826833963394,9.771689414978027
1778601113925580052,6.379580052000001,2.669193744659424,-0.19980068504810333,9.610772132873535
1778601113936356458,6.390356458,2.669193744659424,-0.19980068504810333,9.610772132873535
1778601113947132760,6.40113276,2.5591237545013428,-0.22432711720466614,9.522237777709961
1778601113957909166,6.411909166,2.5591237545013428,-0.22432711720466614,9.522237777709961
1778601113968685573,6.422685573000001,2.251646041870117,-0.09990034252405167,9.476176261901855
1778601113979461979,6.4334619790000005,2.251646041870117,-0.09990034252405167,9.476176261901855
1778601113990238333,6.444238333,1.97407865524292,-0.061016976833343506,9.361320495605469
1778601114001014687,6.455014687,1.97407865524292,-0.061016976833343506,9.361320495605469
1778601114011791093,6.465791093,1.9214365482330322,-0.10887342691421509,9.315258979797363
1778601114022567500,6.476567500000001,2.108076810836792,-0.11724831163883209,9.349954605102539
1778601114033343854,6.487343854000001,2.2576282024383545,-0.11724831163883209,9.369096755981445
1778601114044120208,6.4981202080000005,2.2576282024383545,-0.11724831163883209,9.369096755981445
1778601114054896614,6.508896614,2.654836654663086,-0.19740787148475647,9.58205795288086
1778601114065673020,6.519673020000001,2.654836654663086,-0.19740787148475647,9.58205795288086
1778601114076449427,6.530449427000001,2.7828526496887207,-0.21296121180057526,9.564111709594727
1778601114087225833,6.541225833,2.7828526496887207,-0.21296121180057526,9.564111709594727
1778601114098002187,6.552002187,2.444866418838501,-0.2273181527853012,9.396614074707031
1778601114108778541,6.562778541,2.444866418838501,-0.2273181527853012,9.396614074707031
1778601114119554948,6.573554948000001,2.334198474884033,-0.26440688967704773,9.312267303466797
1778601114130331354,6.584331354000001,2.334198474884033,-0.26440688967704773,9.312267303466797
1778601114141107708,6.5951077080000005,1.9226330518722534,-0.22133609652519226,9.32183837890625
1778601114151884062,6.605884062,1.7443677186965942,-0.19561325013637543,9.340383529663086
1778601114162660468,6.616660468,1.5493526458740234,-0.21954147517681122,9.366703987121582
1778601114173436875,6.627436875000001,1.6456637382507324,-0.13160525262355804,9.337990760803223
1778601114184213229,6.638213229000001,1.882553219795227,-0.12502498924732208,9.42054271697998
1778601114194989583,6.6489895830000005,1.882553219795227,-0.12502498924732208,9.42054271697998
1778601114205765989,6.659765989,1.9465612173080444,-0.24466611444950104,9.65384292602539
1778601114216542395,6.670542395,1.9465612173080444,-0.24466611444950104,9.65384292602539
1778601114227318750,6.68131875,2.190629243850708,-0.3888336718082428,9.555737495422363
1778601114238095104,6.692095104000001,2.190629243850708,-0.3888336718082428,9.555737495422363
1778601114248871510,6.7028715100000005,2.1720848083496094,-0.2350948303937912,9.489336013793945
1778601114259647916,6.713647916,2.191227436065674,-0.243469700217247,9.541379928588867
1778601114270424270,6.72442427,2.268994092941284,-0.21954147517681122,9.608977317810059
1778601114281200625,6.735200625,2.268994092941284,-0.21954147517681122,9.608977317810059
1778601114291977031,6.745977031000001,2.286342144012451,-0.14775680005550385,9.52941608428955
1778601114302753437,6.756753437,2.286342144012451,-0.14775680005550385,9.52941608428955
1778601114313529739,6.767529739,2.520838737487793,0.052043892443180084,9.715457916259766
1778601114324306145,6.778306145,2.520838737487793,0.052043892443180084,9.715457916259766
1778601114335082552,6.789082552,2.7984061241149902,-0.014955141581594944,9.862616539001465
1778601114345858958,6.799858958000001,2.760719060897827,-0.019740786403417587,9.840482711791992
1778601114356635260,6.810635260000001,2.6985056400299072,-0.06580262631177902,9.825528144836426
1778601114367411666,6.821411666,2.6985056400299072,-0.06580262631177902,9.825528144836426
1778601114378188073,6.832188073,2.5764718055725098,-0.037088751792907715,9.79681396484375
1778601114388964375,6.842964375,2.531008243560791,-0.02512463741004467,9.847661972045898
1778601114399740781,6.853740781000001,2.434697151184082,-0.013160524889826775,9.849455833435059
1778601114410517187,6.864517187000001,2.2815563678741455,-0.007178467698395252,9.787242889404297
1778601114421293541,6.8752935410000005,2.242074728012085,0.028115665540099144,9.742975234985352
1778601114432069895,6.886069895,2.2642083168029785,0.06161518394947052,9.694520950317383
1778601114442846302,6.896846302,2.334796667098999,0.11246266216039658,9.589835166931152
1778601114453622708,6.907622708000001,2.334796667098999,0.11246266216039658,9.589835166931152
1778601114464399062,6.918399062000001,2.723630428314209,0.08075776696205139,9.730413436889648
1778601114475175416,6.9291754160000005,2.723630428314209,0.08075776696205139,9.730413436889648
1778601114485951823,6.939951823,2.606980323791504,0.14715859293937683,9.730413436889648
1778601114496728125,6.950728125,2.5262224674224854,0.129810631275177,9.698110580444336
1778601114507504531,6.961504531,2.4095723628997803,0.07597211748361588,9.674181938171387
1778601114518280937,6.972280937000001,2.4095723628997803,0.07597211748361588,9.674181938171387
1778601114529057291,6.983057291000001,2.4640090465545654,-0.05623133108019829,9.868598937988281
1778601114539833645,6.9938336450000005,2.376072883605957,-0.05802594870328903,9.887741088867188
1778601114550610052,7.004610052,2.231905221939087,0.02153540402650833,9.818947792053223
1778601114561386458,7.015386458,2.231905221939087,0.02153540402650833,9.818947792053223
1778601114572162760,7.02616276,2.0811574459075928,0.018544375896453857,9.817750930786133
1778601114582939166,7.036939166000001,2.0811574459075928,0.018544375896453857,9.817750930786133
1778601114593715520,7.047715520000001,2.651845693588257,-0.137587308883667,9.939187049865723
1778601114604491875,7.0584918750000005,2.651845693588257,-0.137587308883667,9.939187049865723
1778601114615268281,7.069268281,2.988037347793579,-0.1698904037475586,10.447661399841309
1778601114626044687,7.080044687,2.988037347793579,-0.1698904037475586,10.447661399841309
1778601114636820989,7.090820989,2.595614433288574,0.06819544732570648,10.30469036102295
1778601114647597395,7.101597395000001,2.595614433288574,0.06819544732570648,10.30469036102295
1778601114658373750,7.112373750000001,2.654836654663086,0.3678964674472809,10.192228317260742
1778601114669150104,7.1231501040000005,2.654836654663086,0.3678964674472809,10.192228317260742
1778601114679926510,7.13392651,2.6626133918762207,0.7076773047447205,9.795019149780273
1778601114690702916,7.144702916000001,2.551347255706787,0.8464609980583191,9.617950439453125
1778601114701479218,7.155479218000001,2.4604198932647705,0.9152546525001526,9.493523597717285
1778601114712255625,7.166255625000001,2.5944180488586426,0.9200403094291687,9.492327690124512
1778601114723031979,7.177031979000001,2.9138598442077637,0.8045865893363953,9.43190860748291
1778601114733808333,7.187808333,2.9138598442077637,0.8045865893363953,9.43190860748291
1778601114744584739,7.198584739,2.956930637359619,0.6801598072052002,9.312267303466797
1778601114755361041,7.209361041,2.956930637359619,0.6801598072052002,9.312267303466797
1778601114766137448,7.220137448,2.9754750728607178,0.6502495408058167,9.080761909484863
1778601114776913854,7.230913854000001,3.1004998683929443,0.5736792087554932,9.106484413146973
1778601114787690156,7.241690156000001,3.1076784133911133,0.5300102233886719,9.144769668579102
1778601114798466562,7.252466562,3.1076784133911133,0.5300102233886719,9.144769668579102
1778601114809242916,7.263242916,3.163909673690796,0.4570291340351105,8.93420124053955
1778601114820019270,7.27401927,3.0346972942352295,0.4749752879142761,8.921041488647461
1778601114830795677,7.284795677000001,3.1339993476867676,0.4456632137298584,8.927620887756348
1778601114841571979,7.295571979000001,3.1339993476867676,0.4456632137298584,8.927620887756348
1778601114852348385,7.306348385000001,3.397209882736206,0.37447673082351685,8.924630165100098
1778601114863124791,7.317124791,3.397209882736206,0.37447673082351685,8.924630165100098
1778601114873901093,7.327901093,3.3589248657226562,0.42711883783340454,8.916254997253418
1778601114884677500,7.3386775,3.267399311065674,0.4295116662979126,9.001200675964355
1778601114895453854,7.349453854,3.181257724761963,0.5910272002220154,8.96112060546875
1778601114906230208,7.360230208000001,3.125624656677246,0.7022934556007385,8.928817749023438
1778601114917006562,7.371006562000001,3.290131092071533,0.7746763229370117,9.047262191772461
1778601114927782916,7.381782916000001,3.290131092071533,0.7746763229370117,9.047262191772461
1778601114938559323,7.392559323,3.36969256401062,0.8793623447418213,9.072985649108887
1778601114949335625,7.403335625,3.36969256401062,0.8793623447418213,9.072985649108887
1778601114960112031,7.414112031,3.1351959705352783,0.9403793215751648,9.040681838989258
1778601114970888437,7.424888437000001,3.1351959705352783,0.9403793215751648,9.040681838989258
1778601114981664739,7.435664739000001,3.545564889907837,0.7806583642959595,9.157332420349121
1778601114992441145,7.4464411450000005,3.545564889907837,0.7806583642959595,9.157332420349121
1778601115003217448,7.457217448000001,3.545564889907837,0.7806583642959595,9.157332420349121
1778601115013993854,7.467993854,3.545564889907837,0.7806583642959595,9.157332420349121
1778601115024770208,7.478770208,3.689134359359741,0.6640082597732544,9.232108116149902
1778601115035546562,7.489546562,3.720839262008667,0.6209374666213989,9.329615592956543
1778601115046322916,7.500322916000001,3.61017107963562,0.6293123364448547,9.40917682647705
1778601115057099270,7.511099270000001,3.4163525104522705,0.7184450030326843,9.314062118530273
1778601115067875677,7.521875677000001,3.38105845451355,0.6999006271362305,9.189037322998047
1778601115078651979,7.532651979000001,3.38105845451355,0.6999006271362305,9.189037322998047
1778601115089428385,7.543428385,3.5048868656158447,0.6520441770553589,9.09691333770752
1778601115100204687,7.554204687,3.5048868656158447,0.6520441770553589,9.09691333770752
1778601115110981093,7.564981093,3.8913278579711914,0.41515472531318665,9.229117393493652
1778601115121757395,7.575757395,3.8913278579711914,0.41515472531318665,9.229117393493652
1778601115132533802,7.586533802000001,3.8117663860321045,0.3439682424068451,9.211769104003906
1778601115143310208,7.597310208000001,3.5742788314819336,0.34217363595962524,9.17467975616455
1778601115154086510,7.608086510000001,3.2865419387817383,0.4893322288990021,9.18425178527832
1778601115164862916,7.618862916,3.2757742404937744,0.5365904569625854,9.33141040802002
1778601115175639218,7.629639218,3.3296127319335938,0.5084748268127441,9.370891571044922
1778601115186415625,7.640415625,3.38105845451355,0.5066801905632019,9.332606315612793
1778601115197191927,7.651191927,3.4540395736694336,0.47916272282600403,9.242277145385742
1778601115207968333,7.661968333000001,3.4301111698150635,0.43190449476242065,9.242277145385742
1778601115218744635,7.672744635000001,3.314059257507324,0.5018945336341858,9.217751502990723
1778601115229521041,7.6835210410000006,3.253640651702881,0.5557330846786499,9.173483848571777
1778601115240297343,7.694297343000001,3.332603693008423,0.5413761138916016,9.2255277633667
1778601115251073750,7.70507375,3.332603693008423,0.5413761138916016,9.2255277633667
1778601115261850052,7.715850052,3.208775281906128,0.6035895347595215,9.270393371582031
1778601115272626354,7.726626354,3.208775281906128,0.6035895347595215,9.270393371582031
1778601115283402760,7.73740276,3.3888349533081055,0.5910272002220154,9.387042999267578
1778601115294179166,7.748179166000001,3.3888349533081055,0.5910272002220154,9.387042999267578
1778601115304955520,7.758955520000001,3.3984062671661377,0.4223332107067108,9.479764938354492
1778601115315731875,7.769731875000001,3.3984062671661377,0.4223332107067108,9.479764938354492
1778601115326508177,7.780508177000001,3.1764719486236572,0.3248256742954254,9.407382011413574
1778601115337284583,7.791284583,3.1764719486236572,0.3248256742954254,9.407382011413574
1778601115348060937,7.802060937,3.153141975402832,0.2829512655735016,9.323633193969727
1778601115358837291,7.812837291,3.153141975402832,0.2829512655735016,9.323633193969727
1778601115369613593,7.823613593,3.235694408416748,0.21655045449733734,9.393623352050781
1778601115380390000,7.834390000000001,3.3714871406555176,0.21954147517681122,9.415757179260254
1778601115391166302,7.845166302000001,3.3439695835113525,0.22432711720466614,9.521040916442871
1778601115401942708,7.855942708000001,3.3439695835113525,0.22432711720466614,9.521040916442871
1778601115412719010,7.866719010000001,3.1208388805389404,0.35533416271209717,9.452247619628906
1778601115423495416,7.877495416,3.1208388805389404,0.35533416271209717,9.452247619628906
1778601115434271718,7.888271718,2.7966115474700928,0.45583271980285645,9.469595909118652
1778601115445048125,7.899048125,2.7966115474700928,0.45583271980285645,9.469595909118652
1778601115455824427,7.909824427,2.973680257797241,0.40259242057800293,9.637691497802734
1778601115466600833,7.920600833000001,2.973680257797241,0.40259242057800293,9.637691497802734
1778601115477377135,7.931377135000001,2.895913600921631,0.29790642857551575,9.589835166931152
1778601115488153541,7.942153541000001,2.895913600921631,0.29790642857551575,9.589835166931152
1778601115498929843,7.952929843000001,2.729612350463867,0.3690928816795349,9.493523597717285
1778601115509706145,7.963706145000001,2.729612350463867,0.3690928816795349,9.493523597717285
1778601115520482552,7.9744825520000004,2.6865415573120117,0.4091726839542389,9.465408325195312
1778601115531258854,7.9852588540000005,2.6865415573120117,0.4091726839542389,9.465408325195312
1778601115542035260,7.99603526,3.0203404426574707,0.3595215976238251,9.55753231048584
1778601115552811562,8.006811562000001,3.0203404426574707,0.3595215976238251,9.55753231048584
1778601115563587968,8.017587968,2.788834810256958,0.29730820655822754,9.637093544006348
1778601115574364270,8.02836427,2.6662025451660156,0.38344982266426086,9.54796028137207
1778601115585140573,8.039140573000001,2.691925525665283,0.40319061279296875,9.507881164550781
1778601115595916979,8.049916979,2.691925525665283,0.40319061279296875,9.507881164550781
1778601115606693281,8.060693281,2.9359934329986572,0.4013960063457489,9.564111709594727
1778601115617469687,8.071469687,2.9359934329986572,0.4013960063457489,9.564111709594727
1778601115628245989,8.082245989,2.7936203479766846,0.4893322288990021,9.477970123291016
1778601115639022395,8.093022395,2.6871397495269775,0.5670989751815796,9.53061294555664
1778601115649798698,8.103798698,2.669193744659424,0.5682953596115112,9.551549911499023
1778601115660575104,8.114575104,2.6709883213043213,0.5204389095306396,9.56889820098877
1778601115671351406,8.125351406,2.8145575523376465,0.5850451588630676,9.57069206237793
1778601115682127708,8.136127708,2.905484914779663,0.5670989751815796,9.598808288574219
1778601115692904062,8.146904062,2.8558337688446045,0.4989035129547119,9.535398483276367
1778601115703680416,8.157680416,2.8558337688446045,0.4989035129547119,9.535398483276367
1778601115714456823,8.168456823,2.7535407543182373,0.41575294733047485,9.589237213134766
1778601115725233125,8.179233125,2.7535407543182373,0.41575294733047485,9.589237213134766
1778601115736009479,8.190009479,2.5148565769195557,0.47976094484329224,9.68375301361084
1778601115746785833,8.200785833000001,2.5148565769195557,0.47976094484329224,9.68375301361084
1778601115757562187,8.211562187,2.4765713214874268,0.737587571144104,9.597611427307129
1778601115768338541,8.222338541000001,2.4765713214874268,0.737587571144104,9.597611427307129
1778601115779114843,8.233114843000001,3.1591241359710693,0.7363911867141724,9.474381446838379
1778601115789891145,8.243891145000001,3.1591241359710693,0.7363911867141724,9.474381446838379
1778601115800667552,8.254667552,3.6472599506378174,0.7010970115661621,9.629316329956055
1778601115811443958,8.265443958,3.6472599506378174,0.7010970115661621,9.629316329956055
1778601115822220260,8.27622026,3.5533416271209717,0.9337990283966064,9.410971641540527
1778601115832996562,8.286996562,3.476173162460327,0.9308080077171326,9.454042434692383
1778601115843772968,8.297772968,3.3822548389434814,0.8961120843887329,9.438488960266113
1778601115854549270,8.30854927,3.384049415588379,0.8081758618354797,9.415757179260254
1778601115865325677,8.319325677,3.294318675994873,0.6879364848136902,9.519247055053711
1778601115876101979,8.330101979,3.294318675994873,0.6879364848136902,9.519247055053711
1778601115886878385,8.340878385,3.077768087387085,0.5826523303985596,9.345169067382812
1778601115897654687,8.351654687,3.077768087387085,0.5826523303985596,9.345169067382812
1778601115908431041,8.362431041,2.750549554824829,0.36610186100006104,9.328418731689453
1778601115919207395,8.373207395,2.6967110633850098,0.2069791555404663,9.379266738891602
1778601115929983750,8.38398375,2.8701908588409424,0.02632104977965355,9.329615592956543
1778601115940760104,8.394760104000001,2.8701908588409424,0.02632104977965355,9.329615592956543
1778601115951536406,8.405536406000001,2.888136863708496,-0.007178467698395252,9.152546882629395
1778601115962312812,8.416312812000001,2.888136863708496,-0.007178467698395252,9.152546882629395
1778601115973089114,8.427089114000001,2.736790895462036,0.11605189740657806,9.131608963012695
1778601115983865520,8.43786552,2.736790895462036,0.11605189740657806,9.131608963012695
1778601115994641823,8.448641823,2.8737800121307373,-0.08673982322216034,9.240483283996582
1778601116005418229,8.459418229,2.8737800121307373,-0.08673982322216034,9.240483283996582
1778601116016194531,8.470194531,2.8109683990478516,-0.34995031356811523,9.505488395690918
1778601116026970833,8.480970833,2.8109683990478516,-0.34995031356811523,9.505488395690918
1778601116037747239,8.491747239,2.8354947566986084,-0.44446679949760437,9.631111145019531
1778601116048523541,8.502523541,2.8354947566986084,-0.44446679949760437,9.631111145019531
1778601116059299948,8.513299948,2.7391836643218994,-0.3517449200153351,9.486345291137695
1778601116070076250,8.52407625,2.7391836643218994,-0.3517449200153351,9.486345291137695
1778601116080852604,8.534852604000001,2.733201742172241,-0.41096729040145874,9.510273933410645
1778601116091628958,8.545628958,2.7074787616729736,-0.3840480446815491,9.462417602539062
1778601116102405312,8.556405312,2.6356940269470215,-0.26440688967704773,9.29312515258789
1778601116113181666,8.567181666,2.6356940269470215,-0.26440688967704773,9.29312515258789
1778601116123957968,8.577957968,3.208775281906128,-0.37447673082351685,9.41755199432373
1778601116134734375,8.588734375000001,3.208775281906128,-0.37447673082351685,9.41755199432373
1778601116145510677,8.599510677000001,3.4337005615234375,-0.2883351147174835,9.347561836242676
1778601116156287083,8.610287083000001,3.4337005615234375,-0.2883351147174835,9.347561836242676
1778601116167063385,8.621063385000001,3.404986619949341,-0.17108681797981262,9.490532875061035
1778601116177839791,8.631839791,3.404986619949341,-0.17108681797981262,9.490532875061035
1778601116188616093,8.642616093,3.19860577583313,-0.03888336941599846,9.4061861038208
1778601116199392395,8.653392395000001,3.19860577583313,-0.03888336941599846,9.4061861038208
1778601116210168750,8.66416875,2.837289333343506,0.16809579730033875,9.021539688110352
1778601116220945104,8.674945104,2.837289333343506,0.16809579730033875,9.021539688110352
1778601116231721510,8.68572151,2.9419753551483154,0.08075776696205139,9.33440113067627
1778601116242497812,8.696497812,2.9419753551483154,0.08075776696205139,9.33440113067627
1778601116253274218,8.707274218,2.7463622093200684,0.1094716340303421,9.276973724365234
1778601116264050520,8.71805052,2.7463622093200684,0.1094716340303421,9.276973724365234
1778601116274826875,8.728826875000001,2.861217737197876,0.2147558331489563,9.155537605285645
1778601116285603229,8.739603229,2.861217737197876,0.2147558331489563,9.155537605285645
1778601116296379531,8.750379531,3.0957143306732178,0.1136590763926506,9.361320495605469
1778601116307155937,8.761155937,3.0957143306732178,0.1136590763926506,9.361320495605469
1778601116317932239,8.771932239,3.060420274734497,0.09511470049619675,9.373882293701172
1778601116328708645,8.782708645000001,3.060420274734497,0.09511470049619675,9.373882293701172
1778601116339484948,8.793484948,2.8654050827026367,-0.0729810893535614,9.390632629394531
1778601116350261250,8.80426125,2.8654050827026367,-0.0729810893535614,9.390632629394531
1778601116361037656,8.815037656000001,2.7463622093200684,-0.23988047242164612,9.369695663452148
1778601116371813958,8.825813958000001,2.7463622093200684,-0.23988047242164612,9.369695663452148
1778601116382590364,8.836590364000001,2.8115665912628174,-0.3122633695602417,9.381061553955078
1778601116393366666,8.847366666000001,2.7535407543182373,-0.37088751792907715,9.510273933410645
1778601116404143020,8.85814302,2.7074787616729736,-0.3720839321613312,9.55753231048584
1778601116414919375,8.868919375,2.7074787616729736,-0.3720839321613312,9.55753231048584
1778601116425695677,8.879695677,2.744567632675171,-0.28953152894973755,9.704689979553223
1778601116436472083,8.890472083,2.744567632675171,-0.28953152894973755,9.704689979553223
1778601116447248385,8.901248385,2.792423963546753,-0.23808585107326508,9.747760772705078
1778601116458024791,8.912024791,2.7248268127441406,-0.25722843408584595,9.777671813964844
1778601116468801093,8.922801093,2.565704107284546,-0.26081767678260803,9.682557106018066
1778601116479577395,8.933577395,2.5052852630615234,-0.28594231605529785,9.591629981994629
1778601116490353802,8.944353802,2.4735803604125977,-0.2877369225025177,9.537193298339844
1778601116501130104,8.955130104,2.4807589054107666,-0.30568310618400574,9.480961799621582
1778601116511906510,8.96590651,2.444866418838501,-0.275174617767334,9.416953086853027
1778601116522682812,8.976682812,2.444866418838501,-0.275174617767334,9.416953086853027
1778601116533459166,8.987459166,2.352144718170166,-0.2356930375099182,9.375677108764648
1778601116544235520,8.99823552,2.352144718170166,-0.2356930375099182,9.375677108764648
1778601116555011875,9.009011875,2.4765713214874268,-0.3200400173664093,9.477970123291016
1778601116565788229,9.019788229000001,2.4765713214874268,-0.3200400173664093,9.477970123291016
1778601116576564531,9.030564531000001,2.217548370361328,-0.2721835672855377,9.495916366577148
1778601116587340937,9.041340937000001,2.1409780979156494,-0.2273181527853012,9.471389770507812
1778601116598117239,9.052117239000001,2.1062822341918945,-0.15553347766399384,9.506684303283691
1778601116608893645,9.062893645,2.1062822341918945,-0.15553347766399384,9.506684303283691
1778601116619669948,9.073669948000001,2.241476535797119,-0.09451649338006973,9.578469276428223
1778601116630446354,9.084446354,2.3234307765960693,-0.09631111472845078,9.565308570861816
1778601116641222656,9.095222656,2.465205430984497,-0.09032905846834183,9.618548393249512
1778601116651999062,9.105999062,2.4939193725585938,-0.07537391036748886,9.69511890411377
1778601116662775364,9.116775364,2.4538395404815674,-0.0323031060397625,9.763314247131348
1778601116673551666,9.127551666,2.4538395404815674,-0.0323031060397625,9.763314247131348
1778601116684328073,9.138328073,2.349153518676758,0.11066804826259613,9.783055305480957
1778601116695104375,9.149104375,2.349153518676758,0.11066804826259613,9.783055305480957
1778601116705880781,9.159880781,2.246262311935425,0.20937198400497437,9.696913719177246
1778601116716657083,9.170657083,2.246262311935425,0.20937198400497437,9.696913719177246
1778601116727433489,9.181433489,2.348555326461792,0.2721835672855377,9.637093544006348
1778601116738209791,9.192209791,2.48315167427063,0.18783657252788544,9.618548393249512
1778601116748986198,9.202986198000001,2.4604198932647705,0.18723836541175842,9.616754531860352
1778601116759762500,9.213762500000001,2.4604198932647705,0.18723836541175842,9.616754531860352
1778601116770538906,9.224538906000001,2.38983154296875,0.26440688967704773,9.44626522064209
1778601116781315208,9.235315208000001,2.4185454845428467,0.24646073579788208,9.519247055053711
1778601116792091614,9.246091614000001,2.490330219268799,0.30568310618400574,9.662816047668457
1778601116802867916,9.256867916000001,2.490330219268799,0.30568310618400574,9.662816047668457
1778601116813644270,9.26764427,2.6949164867401123,0.1663011759519577,9.558130264282227
1778601116824420625,9.278420625,2.825923442840576,0.12083754688501358,9.627521514892578
1778601116835197031,9.289197031,2.7972097396850586,0.16809579730033875,9.7938232421875
1778601116845973333,9.299973333,2.7972097396850586,0.16809579730033875,9.7938232421875
1778601116856749687,9.310749687000001,2.485544443130493,0.13160525262355804,9.892526626586914
1778601116867526041,9.321526041,2.485544443130493,0.13160525262355804,9.892526626586914
1778601116878302395,9.332302395000001,2.1655044555664062,0.017946170642971992,9.81954574584961
1778601116889078750,9.34307875,2.1415762901306152,-0.08195417374372482,9.716055870056152
1778601116899855104,9.353855104,2.3617160320281982,-0.22372891008853912,9.707681655883789
1778601116910631458,9.364631458,2.3617160320281982,-0.22372891008853912,9.707681655883789
1778601116921407812,9.375407812,2.7774689197540283,-0.27038896083831787,9.753743171691895
1778601116932184166,9.386184166000001,3.0077781677246094,-0.2548356056213379,9.812965393066406
1778601116942960520,9.39696052,3.129213809967041,-0.1986042857170105,9.80518913269043
1778601116953736875,9.407736875000001,3.129213809967041,-0.1986042857170105,9.80518913269043
1778601116964513229,9.418513229,3.3888349533081055,0.0011964113218709826,9.830313682556152
1778601116975289583,9.429289583000001,3.3888349533081055,0.0011964113218709826,9.830313682556152
1778601116986065937,9.440065937,3.463610887527466,0.268594354391098,9.688538551330566
1778601116996842291,9.450842291,3.463610887527466,0.268594354391098,9.688538551330566
1778601117007618645,9.461618645,3.45882511138916,0.34217363595962524,9.674181938171387
1778601117018395000,9.472395,3.45882511138916,0.34217363595962524,9.674181938171387
1778601117029171354,9.483171354000001,3.0789644718170166,0.3086741268634796,9.527023315429688
1778601117039947708,9.493947708,3.0789644718170166,0.3086741268634796,9.527023315429688
1778601117050724062,9.504724062000001,2.888136863708496,0.2925225794315338,9.303893089294434
1778601117061500416,9.515500416,2.888136863708496,0.2925225794315338,9.303893089294434
1778601117072276770,9.52627677,2.9599215984344482,0.22133609652519226,9.33141040802002
1778601117083053125,9.537053125,2.9599215984344482,0.22133609652519226,9.33141040802002
1778601117093829479,9.547829479,2.709273338317871,0.4630111753940582,9.214759826660156
1778601117104605729,9.558605729,2.709273338317871,0.4630111753940582,9.214759826660156
1778601117115382187,9.569382187,2.7726831436157227,0.537188708782196,9.278767585754395
1778601117126158541,9.580158541000001,3.0717861652374268,0.4504488706588745,9.404989242553711
1778601117136934895,9.590934895,3.0999016761779785,0.33379876613616943,9.510273933410645
1778601117147711250,9.601711250000001,3.0999016761779785,0.33379876613616943,9.510273933410645
1778601117158487604,9.612487604,2.854039192199707,0.3966103494167328,9.251250267028809
1778601117169263958,9.623263958,2.854039192199707,0.3966103494167328,9.251250267028809
1778601117180040312,9.634040312,2.7798616886138916,0.3409772217273712,9.342177391052246
1778601117190816666,9.644816666,2.7798616886138916,0.3409772217273712,9.342177391052246
1778601117201593020,9.655593020000001,2.848057270050049,0.4091726839542389,9.278169631958008
1778601117212369375,9.666369375,2.848057270050049,0.4091726839542389,9.278169631958008
1778601117223145729,9.677145729000001,2.761915445327759,0.37866419553756714,9.524032592773438
1778601117233922083,9.687922083,2.761915445327759,0.37866419553756714,9.524032592773438
1778601117244698437,9.698698437000001,2.8348965644836426,0.39840495586395264,9.242277145385742
1778601117255474791,9.709474791,2.8348965644836426,0.39840495586395264,9.242277145385742
1778601117266251093,9.720251093,2.96111798286438,0.3122633695602417,9.360123634338379
1778601117277027500,9.7310275,2.9168508052825928,0.3433700501918793,9.269196510314941
1778601117287803802,9.741803802,2.8253252506256104,0.3409772217273712,9.20698356628418
1778601117298580208,9.752580208000001,2.8253252506256104,0.3409772217273712,9.20698356628418
1778601117309356510,9.763356510000001,2.7631118297576904,0.380458801984787,9.290133476257324
1778601117320132916,9.774132916000001,2.7631118297576904,0.380458801984787,9.290133476257324
1778601117330909218,9.784909218000001,2.795415163040161,0.25004997849464417,9.385248184204102
1778601117341685625,9.795685625,2.795415163040161,0.25004997849464417,9.385248184204102
1778601117352461927,9.806461927,2.740978240966797,0.22612173855304718,9.354740142822266
1778601117363238333,9.817238333,2.740978240966797,0.22612173855304718,9.354740142822266
1778601117374014635,9.828014635,2.5597219467163086,0.2590230405330658,9.340383529663086
1778601117384791041,9.838791041,2.5429723262786865,0.26440688967704773,9.257830619812012
1778601117395567343,9.849567343,2.4987051486968994,0.2847459018230438,9.18305492401123
1778601117406343750,9.86034375,2.4987051486968994,0.2847459018230438,9.18305492401123
1778601117417120052,9.871120052,2.5334010124206543,0.18424734473228455,9.316454887390137
1778601117427896458,9.881896458,2.5334010124206543,0.18424734473228455,9.316454887390137
1778601117438672760,9.89267276,2.703291416168213,0.14715859293937683,9.45045280456543
1778601117449449062,9.903449062,2.703291416168213,0.14715859293937683,9.45045280456543
1778601117460225468,9.914225468000001,2.538186550140381,0.21176479756832123,9.34875774383545
1778601117471001770,9.925001770000001,2.538186550140381,0.21176479756832123,9.34875774383545
1778601117481778177,9.935778177000001,2.562114953994751,0.2913261651992798,9.424132347106934
1778601117492554479,9.946554479000001,2.562114953994751,0.2913261651992798,9.424132347106934
1778601117503330885,9.957330885000001,2.7361927032470703,0.2721835672855377,9.476774215698242
1778601117514107187,9.968107187000001,2.7942185401916504,0.268594354391098,9.549755096435547
1778601117524883593,9.978883593,2.8396823406219482,0.2476571500301361,9.603593826293945
1778601117535659895,9.989659895,2.8396823406219482,0.2476571500301361,9.603593826293945
1778601117546436302,10.000436302,2.7415764331817627,0.26560330390930176,9.567103385925293
1778601117557212604,10.011212604,2.7415764331817627,0.26560330390930176,9.567103385925293
1778601117567988958,10.021988958000001,2.801995277404785,0.3840480446815491,9.537193298339844
1778601117578765312,10.032765312,2.801995277404785,0.3840480446815491,9.537193298339844
1778601117589541666,10.043541666000001,2.7798616886138916,0.3768695592880249,9.605388641357422
1778601117600318020,10.05431802,2.7798616886138916,0.3768695592880249,9.605388641357422
1778601117611094323,10.065094323,2.682354211807251,0.46480581164360046,9.625128746032715
1778601117621870729,10.075870729,2.682354211807251,0.46480581164360046,9.625128746032715
1778601117632647031,10.086647031,2.523829698562622,0.42352959513664246,9.455238342285156
1778601117643423437,10.097423437,2.523829698562622,0.42352959513664246,9.455238342285156
1778601117654199739,10.108199739,2.706282377243042,0.2991028428077698,9.460023880004883
1778601117664976041,10.118976041,2.706282377243042,0.2991028428077698,9.460023880004883
1778601117675752448,10.129752448000001,2.6805596351623535,0.32961133122444153,9.512666702270508
1778601117686528750,10.140528750000001,2.6805596351623535,0.32961133122444153,9.512666702270508
1778601117697305156,10.151305156000001,2.6123640537261963,0.3888336718082428,9.454042434692383
1778601117708081458,10.162081458000001,2.6123640537261963,0.3888336718082428,9.454042434692383
1778601117718857864,10.172857864000001,2.8181469440460205,0.34217363595962524,9.476774215698242
1778601117729634166,10.183634166000001,2.7493531703948975,0.4013960063457489,9.515059471130371
1778601117740410520,10.19441052,2.775076150894165,0.47976094484329224,9.534201622009277
1778601117751186875,10.205186875,2.775076150894165,0.47976094484329224,9.534201622009277
1778601117761963177,10.215963177,2.7535407543182373,0.46779683232307434,9.424132347106934
1778601117772739583,10.226739583,2.7535407543182373,0.46779683232307434,9.424132347106934
1778601117783515885,10.237515885,2.8755745887756348,0.44745782017707825,9.480961799621582
1778601117794292291,10.248292291,2.8755745887756348,0.44745782017707825,9.480961799621582
1778601117805068593,10.259068593,2.6662025451660156,0.6406782865524292,9.409774780273438
1778601117815844895,10.269844895,2.6662025451660156,0.6406782865524292,9.409774780273438
1778601117826621302,10.280621302,2.7463622093200684,0.6628118753433228,9.507881164550781
1778601117837397604,10.291397604,2.7463622093200684,0.6628118753433228,9.507881164550781
1778601117848173958,10.302173958000001,2.7601208686828613,0.6544370055198669,9.561120986938477
1778601117858950312,10.312950312,2.7571299076080322,0.605384111404419,9.538987159729004
1778601117869726614,10.323726614,2.7774689197540283,0.617946445941925,9.477970123291016
1778601117880503020,10.334503020000001,2.7774689197540283,0.617946445941925,9.477970123291016
1778601117891279323,10.345279323000002,2.8588249683380127,0.6801598072052002,9.528818130493164
1778601117902055625,10.356055625,2.8588249683380127,0.6801598072052002,9.528818130493164
1778601117912832031,10.366832031000001,3.036491870880127,0.631106972694397,9.599406242370605
1778601117923608333,10.377608333000001,3.036491870880127,0.631106972694397,9.599406242370605
1778601117934384739,10.388384739000001,2.8211379051208496,0.7136593461036682,9.599406242370605
1778601117945161041,10.399161041000001,2.8211379051208496,0.7136593461036682,9.599406242370605
1778601117955937343,10.409937343000001,2.6913273334503174,0.7471588850021362,9.667601585388184
1778601117966713750,10.42071375,2.7589244842529297,0.7238288521766663,9.674181938171387
1778601117977490052,10.431490052000001,2.7487549781799316,0.6771687865257263,9.631111145019531
1778601117988266354,10.442266354000001,2.6392834186553955,0.6915257573127747,9.591031074523926
1778601117999042760,10.45304276,2.609971284866333,0.7166503667831421,9.627521514892578
1778601118009819062,10.463819062,2.609971284866333,0.7166503667831421,9.627521514892578
1778601118020595416,10.474595416000001,2.6291139125823975,0.5126622319221497,9.632905960083008
1778601118031371770,10.48537177,2.6291139125823975,0.5126622319221497,9.632905960083008
1778601118042148073,10.496148073,2.7984061241149902,0.4013960063457489,9.65503978729248
1778601118052924479,10.506924479,2.7984061241149902,0.4013960063457489,9.65503978729248
1778601118063700781,10.517700781,2.6596224308013916,0.3966103494167328,9.588040351867676
1778601118074477083,10.528477083,2.5609183311462402,0.35832518339157104,9.626325607299805
1778601118085253489,10.539253489,2.5674986839294434,0.3696911036968231,9.537193298339844
1778601118096029791,10.550029791,2.548356056213379,0.38703906536102295,9.527023315429688
1778601118106806093,10.560806093,2.435295343399048,0.4217349886894226,9.521040916442871
1778601118117582500,10.5715825,2.435295343399048,0.4217349886894226,9.521040916442871
1778601118128358802,10.582358802,2.3437697887420654,0.4265206456184387,9.492327690124512
1778601118139135104,10.593135104,2.3437697887420654,0.4265206456184387,9.492327690124512
1778601118149911458,10.603911458,2.565704107284546,0.32961133122444153,9.53061294555664
1778601118160687812,10.614687812000001,2.565704107284546,0.32961133122444153,9.53061294555664
1778601118171464114,10.625464114000001,2.688934564590454,0.30568310618400574,9.605388641357422
1778601118182240416,10.636240416000001,2.688934564590454,0.30568310618400574,9.605388641357422
1778601118193016823,10.647016823000001,2.8175487518310547,0.3314059376716614,9.610772132873535
1778601118203793125,10.657793125000001,2.8175487518310547,0.3314059376716614,9.610772132873535
1778601118214569479,10.668569479,2.5800609588623047,0.21655045449733734,9.670592308044434
1778601118225345833,10.679345833000001,2.5800609588623047,0.21655045449733734,9.670592308044434
1778601118236122135,10.690122135000001,2.595614433288574,0.2356930375099182,9.81655502319336
1778601118246898437,10.700898437000001,2.6602206230163574,0.21296121180057526,9.733404159545898
1778601118257674843,10.711674843,2.8223342895507812,0.09212367236614227,9.806983947753906
1778601118268451145,10.722451145,2.8223342895507812,0.09212367236614227,9.806983947753906
1778601118279227448,10.733227448000001,2.6913273334503174,0.09631111472845078,9.79681396484375
1778601118290003854,10.744003854,2.6913273334503174,0.09631111472845078,9.79681396484375
1778601118300780156,10.754780156,2.6362924575805664,0.17288143932819366,9.65803050994873
1778601118311556458,10.765556458,2.651845693588257,0.24287149310112,9.604191780090332
1778601118322332760,10.77633276,2.706282377243042,0.1585244983434677,9.710672378540039
1778601118333109166,10.787109166,2.706282377243042,0.1585244983434677,9.710672378540039
1778601118343885468,10.797885468,2.6985056400299072,0.16809579730033875,9.670592308044434
1778601118354661770,10.80866177,2.6985056400299072,0.16809579730033875,9.670592308044434
1778601118365438125,10.819438125000001,2.4765713214874268,0.22851456701755524,9.465408325195312
1778601118376214479,10.830214479,2.4765713214874268,0.22851456701755524,9.465408325195312
1778601118386990781,10.840990781,2.651845693588257,0.22432711720466614,9.476176261901855
1778601118397767083,10.851767083,2.651845693588257,0.22432711720466614,9.476176261901855
1778601118408543437,10.862543437000001,2.7535407543182373,0.09032905846834183,9.565906524658203
1778601118419319791,10.873319791,2.7535407543182373,0.09032905846834183,9.565906524658203
1778601118430096093,10.884096093,2.6117658615112305,0.05144568532705307,9.53360366821289
1778601118440872395,10.894872395,2.63449764251709,-0.028115665540099144,9.562317848205566
1778601118451648750,10.905648750000001,2.5334010124206543,-0.06819544732570648,9.538987159729004
1778601118462425104,10.916425104,2.5334010124206543,-0.06819544732570648,9.538987159729004
1778601118473201406,10.927201406,2.479562520980835,-0.05383851006627083,9.419346809387207
1778601118483977708,10.937977708,2.479562520980835,-0.05383851006627083,9.419346809387207
1778601118494754062,10.948754062,2.414358139038086,-0.15732808411121368,9.498908042907715
1778601118505530416,10.959530416000002,2.239083766937256,-0.14117653667926788,9.377471923828125
1778601118516306718,10.970306718000002,2.1361923217773438,-0.14416755735874176,9.330811500549316
1778601118527083020,10.98108302,2.073979139328003,-0.17946170270442963,9.328418731689453
1778601118537859323,10.991859323,2.084148406982422,-0.16510476171970367,9.19442081451416
1778601118548635729,11.002635729000001,2.084148406982422,-0.16510476171970367,9.19442081451416
1778601118559412031,11.013412031000001,2.211566209793091,-0.13040883839130402,9.202198028564453
1778601118570188333,11.024188333000001,2.211566209793091,-0.13040883839130402,9.202198028564453
1778601118580964635,11.034964635000001,2.610569477081299,-0.19202402234077454,9.340383529663086
1778601118591740937,11.045740937000001,2.610569477081299,-0.19202402234077454,9.340383529663086
1778601118602517343,11.056517343000001,2.482553482055664,-0.08195417374372482,9.474979400634766
1778601118613293541,11.067293541000002,2.482553482055664,-0.08195417374372482,9.474979400634766
1778601118624069948,11.078069948000001,2.8594231605529785,0.048454657196998596,9.538389205932617
1778601118634846250,11.088846250000001,2.8594231605529785,0.048454657196998596,9.538389205932617
1778601118645622604,11.099622604,2.7732813358306885,0.04247260093688965,9.667601585388184
1778601118656398958,11.110398958000001,2.778067111968994,0.06580262631177902,9.65503978729248
1778601118667175260,11.121175260000001,2.827120065689087,0.059820566326379776,9.745966911315918
1778601118677951562,11.131951562000001,2.827120065689087,0.059820566326379776,9.745966911315918
1778601118688727864,11.142727864000001,2.538186550140381,0.09032905846834183,9.629914283752441
1778601118699504166,11.153504166000001,2.538186550140381,0.09032905846834183,9.629914283752441
1778601118710280520,11.16428052,2.2642083168029785,0.12801600992679596,9.596415519714355
1778601118721056875,11.175056875000001,2.2642083168029785,0.12801600992679596,9.596415519714355
1778601118731833177,11.185833177000001,2.263011932373047,0.03469592705368996,9.589835166931152
1778601118742609479,11.196609479000001,2.2199411392211914,-0.023330021649599075,9.623334884643555
1778601118753385781,11.207385781000001,1.9627127647399902,-0.02751746028661728,9.538389205932617
1778601118764162083,11.218162083000001,1.817348837852478,0.02273181453347206,9.485747337341309
1778601118774938437,11.228938437,1.8299111127853394,-0.029910283163189888,9.540184020996094
1778601118785714791,11.239714791,1.8299111127853394,-0.029910283163189888,9.540184020996094
1778601118796491093,11.250491093,1.9609181880950928,-0.11724831163883209,9.326624870300293
1778601118807267395,11.261267395,2.2642083168029785,-0.1902294009923935,9.383454322814941
1778601118818043698,11.272043698000001,2.45204496383667,-0.16689938306808472,9.479764938354492
1778601118828820000,11.282820000000001,2.45204496383667,-0.16689938306808472,9.479764938354492
1778601118839596302,11.293596302000001,2.6195425987243652,-0.09212367236614227,9.627521514892578
1778601118850372708,11.304372708,2.6195425987243652,-0.09212367236614227,9.627521514892578
1778601118861149010,11.31514901,2.5740790367126465,0.08374879509210587,9.618548393249512
1778601118871925312,11.325925312,2.5740790367126465,0.08374879509210587,9.618548393249512
1778601118882701614,11.336701614,2.706282377243042,0.11545369029045105,9.623334884643555
1778601118893477916,11.347477916,2.706282377243042,0.11545369029045105,9.623334884643555
1778601118904254218,11.358254218,2.7637102603912354,0.20039889216423035,9.611968994140625
1778601118915030520,11.36903052,2.8654050827026367,0.2350948303937912,9.572486877441406
1778601118925806823,11.379806823000001,2.7876384258270264,0.26201409101486206,9.705886840820312
1778601118936583229,11.390583229,2.7876384258270264,0.26201409101486206,9.705886840820312
1778601118947359531,11.401359531,2.523829698562622,0.14775680005550385,9.626325607299805
1778601118958135833,11.412135833,2.523829698562622,0.14775680005550385,9.626325607299805
1778601118968912135,11.422912135,2.3264217376708984,0.12382857501506805,9.620343208312988
1778601118979688437,11.433688437,2.256431818008423,0.16869398951530457,9.58325481414795
1778601118990464739,11.444464739,2.292922258377075,0.11724831163883209,9.565308570861816
1778601119001241041,11.455241041,2.2366909980773926,0.02512463741004467,9.543174743652344
1778601119012017343,11.466017343,2.2737796306610107,0.013160524889826775,9.573683738708496
1778601119022793645,11.476793645,2.2737796306610107,0.013160524889826775,9.573683738708496
1778601119033569948,11.487569948,2.2031915187835693,0.04546362906694412,9.519247055053711
1778601119044346250,11.49834625,2.2031915187835693,0.04546362906694412,9.519247055053711
1778601119055122604,11.509122604,2.42093825340271,0.04187439754605293,9.605388641357422
1778601119065898958,11.519898958,2.42093825340271,0.04187439754605293,9.605388641357422
1778601119076675260,11.53067526,2.538186550140381,-0.018544375896453857,9.642477035522461
1778601119087451562,11.541451562,2.538186550140381,-0.018544375896453857,9.642477035522461
1778601119098227864,11.552227864,2.420340061187744,-0.07417750358581543,9.7064847946167
1778601119109004166,11.563004166,2.420340061187744,-0.07417750358581543,9.7064847946167
1778601119119780468,11.573780468,2.3982064723968506,-0.05144568532705307,9.709476470947266
1778601119130556770,11.58455677,2.3982064723968506,-0.05144568532705307,9.709476470947266
1778601119141333073,11.595333073,2.3300111293792725,-0.05383851006627083,9.691530227661133
1778601119152109375,11.606109375,2.3300111293792725,-0.05383851006627083,9.691530227661133
1778601119162885677,11.616885677,2.310270309448242,-0.06161518394947052,9.69930648803711
1778601119173661979,11.627661979,2.310270309448242,-0.06161518394947052,9.69930648803711
1778601119184438281,11.638438281,2.08713960647583,0.0005982056609354913,9.515059471130371
1778601119195214583,11.649214583000001,2.4400808811187744,-0.1585244983434677,9.610772132873535
1778601119205990885,11.659990885000001,2.1409780979156494,0.053240302950143814,10.024730682373047
1778601119216767187,11.670767187000001,2.1409780979156494,0.053240302950143814,10.024730682373047
1778601119227543489,11.681543489000001,2.3706889152526855,-0.03290131315588951,9.455238342285156
1778601119238319791,11.692319791000001,2.3706889152526855,-0.03290131315588951,9.455238342285156
1778601119249096093,11.703096093000001,2.2480568885803223,0.1423729509115219,9.607182502746582
1778601119259872395,11.713872395000001,2.2480568885803223,0.1423729509115219,9.607182502746582
1778601119270648698,11.724648698000001,2.589632272720337,-0.004187439568340778,9.626325607299805
1778601119281425000,11.735425000000001,2.589632272720337,-0.004187439568340778,9.626325607299805
1778601119292201302,11.746201302000001,2.5334010124206543,0.048454657196998596,9.422337532043457
1778601119302977604,11.756977604000001,2.5334010124206543,0.048454657196998596,9.422337532043457
1778601119313753906,11.767753906000001,2.7122645378112793,0.16510476171970367,9.551549911499023
1778601119324530208,11.778530208000001,2.6937201023101807,0.1381855010986328,9.572486877441406
1778601119335306510,11.789306510000001,2.667997360229492,0.20937198400497437,9.567103385925293
1778601119346082812,11.800082812000001,2.667997360229492,0.20937198400497437,9.567103385925293
1778601119356859114,11.810859114000001,2.466402053833008,0.3122633695602417,9.558130264282227
1778601119367635416,11.821635416000001,2.466402053833008,0.3122633695602417,9.558130264282227
1778601119378411718,11.832411718000001,2.2881367206573486,0.4366901218891144,9.686744689941406
1778601119389188020,11.843188020000001,2.2259232997894287,0.4713860750198364,9.814162254333496
1778601119399964323,11.853964323000001,2.076371908187866,0.5300102233886719,9.929018020629883
1778601119410740625,11.864740625000001,2.076371908187866,0.5300102233886719,9.929018020629883
1778601119421516927,11.875516927000001,1.9387845993041992,0.4666004180908203,9.905089378356934
1778601119432293229,11.886293229000001,1.9387845993041992,0.4666004180908203,9.905089378356934
1778601119443069531,11.897069531000001,1.7186448574066162,0.31345975399017334,9.696913719177246
1778601119453845833,11.907845833000001,1.7186448574066162,0.31345975399017334,9.696913719177246
1778601119464622135,11.918622135000001,2.379063844680786,-0.029312077909708023,9.768698692321777
1778601119475398437,11.929398437000001,2.379063844680786,-0.029312077909708023,9.768698692321777
1778601119486174739,11.940174739000001,2.7176482677459717,-0.23210379481315613,9.822537422180176
1778601119496951041,11.950951041000001,2.7176482677459717,-0.23210379481315613,9.822537422180176
1778601119507727343,11.961727343000002,2.7140591144561768,-0.04666004329919815,9.851250648498535
1778601119518503645,11.972503645000002,2.7140591144561768,-0.04666004329919815,9.851250648498535
1778601119529279948,11.983279948000002,2.740978240966797,0.16809579730033875,9.535398483276367
1778601119540056250,11.99405625,2.740978240966797,0.16809579730033875,9.535398483276367
1778601119550832552,12.004832552,2.819343328475952,0.15254244208335876,9.387042999267578
1778601119561608750,12.01560875,2.7044878005981445,0.1986042857170105,9.256035804748535
1778601119572385104,12.026385104000001,2.547757863998413,0.22552353143692017,9.216554641723633
1778601119583161354,12.037161354,2.547757863998413,0.22552353143692017,9.216554641723633
1778601119593937708,12.047937708000001,2.1984057426452637,0.3481557071208954,9.230911254882812
1778601119604713958,12.058713958,2.1272194385528564,0.48873403668403625,9.139984130859375
1778601119615490260,12.06949026,2.0745773315429688,0.4588237404823303,9.259027481079102
1778601119626266562,12.080266562,2.0745773315429688,0.4588237404823303,9.259027481079102
1778601119637042864,12.091042864,2.4568307399749756,0.4749752879142761,9.554540634155273
1778601119647819166,12.101819166,2.4568307399749756,0.4749752879142761,9.554540634155273
1778601119658595468,12.112595468,2.276770830154419,0.5204389095306396,9.5802640914917
1778601119669371770,12.12337177,2.276770830154419,0.5204389095306396,9.5802640914917
1778601119680148073,12.134148073,2.565704107284546,0.5222335457801819,9.631111145019531
1778601119690924270,12.14492427,2.644068956375122,0.5000999569892883,9.567103385925293
1778601119701700573,12.155700573,2.6362924575805664,0.5324030518531799,9.497113227844238
1778601119712476875,12.166476875,2.6362924575805664,0.5324030518531799,9.497113227844238
1778601119723253177,12.177253177,2.6087749004364014,0.6185446381568909,9.347561836242676
1778601119734029479,12.188029479,2.6087749004364014,0.6185446381568909,9.347561836242676
1778601119744805781,12.198805781,2.8145575523376465,0.503689169883728,9.470193862915039
1778601119755582083,12.209582083,2.8145575523376465,0.503689169883728,9.470193862915039
1778601119766358385,12.220358385,2.4987051486968994,0.6807580590248108,9.253045082092285
1778601119777134687,12.231134687,2.420340061187744,0.7010970115661621,9.30867862701416
1778601119787910885,12.241910885000001,2.4526431560516357,0.7393822073936462,9.361918449401855
1778601119798687187,12.252687187000001,2.4526431560516357,0.7393822073936462,9.361918449401855
1778601119809463489,12.263463489000001,2.341975212097168,0.7902296781539917,9.29611587524414
1778601119820239791,12.274239791000001,2.379063844680786,0.7250252366065979,9.267401695251465
1778601119831016093,12.285016093000001,2.500499725341797,0.638883650302887,9.270393371582031
1778601119841792395,12.295792395000001,2.500499725341797,0.638883650302887,9.270393371582031
1778601119852568645,12.306568645,2.6195425987243652,0.5796613097190857,9.430113792419434
1778601119863345000,12.317345000000001,2.688336133956909,0.50129634141922,9.594620704650879
1778601119874121198,12.328121198000002,2.466402053833008,0.6023930907249451,9.596415519714355
1778601119884897500,12.338897500000002,2.3186452388763428,0.617946445941925,9.486345291137695
1778601119895673802,12.349673802000002,2.4089741706848145,0.6131607890129089,9.519247055053711
1778601119906450104,12.360450104,2.4089741706848145,0.6131607890129089,9.519247055053711
1778601119917226302,12.371226302,2.5914268493652344,0.589830756187439,9.637093544006348
1778601119928002604,12.382002604,2.627917528152466,0.5730810165405273,9.482755661010742
1778601119938778906,12.392778906,2.63449764251709,0.5413761138916016,9.452247619628906
1778601119949555208,12.403555208,2.63449764251709,0.48574298620224,9.3457670211792
1778601119960331510,12.41433151,2.530410051345825,0.4630111753940582,9.232108116149902
1778601119971107812,12.425107812,2.4783661365509033,0.5335994362831116,9.21296501159668
1778601119981884010,12.43588401,2.5495524406433105,0.5635097622871399,9.227322578430176
1778601119992660312,12.446660312,2.667997360229492,0.5318048596382141,9.323633193969727
1778601120003436614,12.457436614,2.6362924575805664,0.5940182209014893,9.395418167114258
1778601120014212916,12.468212916,2.6362924575805664,0.5940182209014893,9.395418167114258
1778601120024989166,12.478989166000002,2.4155545234680176,0.714257538318634,9.315258979797363
1778601120035765416,12.489765416000001,2.4711875915527344,0.6933203339576721,9.479764938354492
1778601120046541718,12.500541718000001,2.4807589054107666,0.7070791125297546,9.535398483276367
1778601120057318020,12.511318020000001,2.4299113750457764,0.7645068168640137,9.507881164550781
1778601120068094323,12.522094323000001,2.4011974334716797,0.755533754825592,9.493523597717285
1778601120078870520,12.532870520000001,2.437688112258911,0.7250252366065979,9.572486877441406
1778601120089646823,12.543646823000001,2.593221426010132,0.7603194117546082,9.597611427307129
1778601120100423125,12.554423125000001,2.593221426010132,0.7603194117546082,9.597611427307129
1778601120111199427,12.565199427000001,2.7762725353240967,0.6131607890129089,9.742975234985352
1778601120121975729,12.575975729000001,2.7762725353240967,0.6131607890129089,9.742975234985352
1778601120132751927,12.586751927000002,2.8833513259887695,0.5222335457801819,9.938589096069336
1778601120143528229,12.597528229,2.8833513259887695,0.5222335457801819,9.938589096069336
1778601120154304531,12.608304531,2.581855535507202,0.503689169883728,9.806385040283203
1778601120165080833,12.619080833,2.581855535507202,0.503689169883728,9.806385040283203
1778601120175857031,12.629857031,2.5256242752075195,0.4175475537776947,9.752547264099121
1778601120186633333,12.640633333,2.5399811267852783,0.33858439326286316,9.708877563476562
1778601120197409583,12.651409583000001,2.5292134284973145,0.3002992272377014,9.66819953918457
1778601120208185937,12.662185937,2.5292134284973145,0.3002992272377014,9.66819953918457
1778601120218962135,12.672962135,2.523829698562622,0.2273181527853012,9.628120422363281
1778601120229738437,12.683738437,2.475973129272461,0.21655045449733734,9.57188892364502
1778601120240514739,12.694514739,2.4089741706848145,0.27038896083831787,9.518050193786621
1778601120251290937,12.705290937000001,2.32761812210083,0.31824541091918945,9.505488395690918
1778601120262067239,12.716067239000001,2.355135679244995,0.25423741340637207,9.517452239990234
1778601120272843541,12.726843541000001,2.355135679244995,0.25423741340637207,9.517452239990234
1778601120283619843,12.737619843000001,2.3359930515289307,0.32303106784820557,9.358329772949219
1778601120294396041,12.748396041000001,2.3359930515289307,0.32303106784820557,9.358329772949219
1778601120305172343,12.759172343000001,2.4029922485351562,0.25423741340637207,9.381061553955078
1778601120315948645,12.769948645000001,2.4029922485351562,0.25423741340637207,9.381061553955078
1778601120326724948,12.780724948000001,2.48315167427063,0.2799602448940277,9.300901412963867
1778601120337501145,12.791501145000002,2.48315167427063,0.2799602448940277,9.300901412963867
1778601120348277448,12.802277448000002,2.531008243560791,0.29790642857551575,9.355338096618652
1778601120359053750,12.813053750000002,2.531008243560791,0.29790642857551575,9.355338096618652
1778601120369830000,12.823830000000001,2.499901533126831,0.3439682424068451,9.413962364196777
1778601120380606250,12.83460625,2.499901533126831,0.3439682424068451,9.413962364196777
1778601120391382552,12.845382552,2.203789710998535,0.39481574296951294,9.369096755981445
1778601120402158750,12.85615875,2.203789710998535,0.39481574296951294,9.369096755981445
1778601120412935052,12.866935052,2.3569302558898926,0.4139583110809326,9.484550476074219
1778601120423711354,12.877711354,2.3569302558898926,0.4139583110809326,9.484550476074219
1778601120434487656,12.888487656,2.461616277694702,0.4666004180908203,9.511469841003418
1778601120445263958,12.899263958,2.461616277694702,0.4666004180908203,9.511469841003418
1778601120456040156,12.910040156,2.404188632965088,0.41216370463371277,9.632308006286621
1778601120466816458,12.920816458000001,2.404188632965088,0.41216370463371277,9.632308006286621
1778601120477592760,12.931592760000001,2.4699912071228027,0.3900300860404968,9.828518867492676
1778601120488369062,12.942369062000001,2.4364917278289795,0.3720839321613312,9.768698692321777
1778601120499145260,12.953145260000001,2.3946173191070557,0.32662028074264526,9.694520950317383
1778601120509921562,12.963921562000001,2.3946173191070557,0.32662028074264526,9.694520950317383
1778601120520697864,12.974697864000001,2.3946173191070557,0.32662028074264526,9.694520950317383
1778601120531474062,12.985474062000002,2.352144718170166,0.26201409101486206,9.702896118164062
1778601120542250364,12.996250364000002,2.32761812210083,0.22073788940906525,9.584450721740723
1778601120553026666,13.007026666000002,2.437688112258911,0.20997019112110138,9.610174179077148
1778601120563802968,13.017802968000002,2.4879374504089355,0.24047867953777313,9.522835731506348
1778601120574579166,13.028579166,2.586641311645508,0.3122633695602417,9.483952522277832
1778601120585355468,13.039355468,2.5639095306396484,0.33439695835113525,9.439684867858887
1778601120596131770,13.05013177,2.4335005283355713,0.3565305769443512,9.517452239990234
1778601120606908073,13.060908073,2.4670002460479736,0.381655216217041,9.58325481414795
1778601120617684270,13.07168427,2.4670002460479736,0.381655216217041,9.58325481414795
1778601120628460573,13.082460573,2.516651153564453,0.259621262550354,9.537193298339844
1778601120639236875,13.093236875,2.516651153564453,0.259621262550354,9.537193298339844
1778601120650013177,13.104013177,2.516651153564453,0.259621262550354,9.537193298339844
1778601120660789375,13.114789375,2.7379872798919678,0.12801600992679596,9.404989242553711
1778601120671565677,13.125565677,2.6422743797302246,0.06640082597732544,9.474979400634766
1778601120682341979,13.136341979000001,2.6500511169433594,0.10648060590028763,9.506684303283691
1778601120693118229,13.147118229,2.5052852630615234,0.11844471842050552,9.484550476074219
1778601120703894479,13.157894479000001,2.5052852630615234,0.11844471842050552,9.484550476074219
1778601120714670781,13.168670781000001,2.3712873458862305,0.19202402234077454,9.588040351867676
1778601120725447083,13.179447083000001,2.449054002761841,0.137587308883667,9.64367389678955
1778601120736223333,13.190223333,2.3772692680358887,0.12323036789894104,9.730413436889648
1778601120746999583,13.200999583000002,2.3772692680358887,0.12323036789894104,9.730413436889648
1778601120757775885,13.211775885000002,2.726621389389038,0.13280165195465088,9.591629981994629
1778601120768552187,13.222552187000002,2.726621389389038,0.13280165195465088,9.591629981994629
1778601120779328385,13.233328385,3.0287153720855713,0.1698904037475586,9.402596473693848
1778601120790104687,13.244104687,3.119044303894043,0.13998012244701385,9.504889488220215
1778601120800880989,13.254880989,3.1411778926849365,0.0771685317158699,9.731609344482422
1778601120811657291,13.265657291,3.057429075241089,0.03888336941599846,9.708877563476562
1778601120822433489,13.276433489,2.791825771331787,-0.004187439568340778,9.608379364013672
1778601120833209791,13.287209791,2.791825771331787,-0.004187439568340778,9.608379364013672
1778601120843986093,13.297986093,2.2055842876434326,0.1537388563156128,9.482755661010742
1778601120854762395,13.308762395,2.420340061187744,0.06281159073114395,9.466604232788086
1778601120865538593,13.319538593,2.7140591144561768,0.02273181453347206,9.45763111114502
1778601120876314895,13.330314895,2.7140591144561768,0.02273181453347206,9.45763111114502
1778601120887091145,13.341091145,2.970689296722412,-0.0005982056609354913,9.484550476074219
1778601120897867395,13.351867395000001,2.970689296722412,-0.0005982056609354913,9.484550476074219
1778601120908643698,13.362643698000001,3.184846878051758,0.1423729509115219,9.469595909118652
1778601120919420000,13.373420000000001,3.184846878051758,0.1423729509115219,9.469595909118652
1778601120930196198,13.384196198000001,2.988635540008545,0.3002992272377014,9.481559753417969
1778601120940972500,13.394972500000002,2.988635540008545,0.3002992272377014,9.481559753417969
1778601120951748802,13.405748802000002,2.7427730560302734,0.5108676552772522,9.418747901916504
1778601120962525104,13.416525104000002,2.7427730560302734,0.5108676552772522,9.418747901916504
1778601120973301302,13.427301302,2.8420751094818115,0.40259242057800293,9.514460563659668
1778601120984077604,13.438077604,2.8420751094818115,0.40259242057800293,9.514460563659668
1778601120994853906,13.448853906,3.116053342819214,0.22133609652519226,9.494122505187988
1778601121005630104,13.459630104,3.116053342819214,0.22133609652519226,9.494122505187988
1778601121016406406,13.470406406,3.2548370361328125,0.09511470049619675,9.473184585571289
1778601121027182708,13.481182708,3.2548370361328125,0.09511470049619675,9.473184585571289
1778601121037959010,13.49195901,3.187838077545166,-0.09930214285850525,9.454042434692383
1778601121048735208,13.502735208,3.187838077545166,-0.09930214285850525,9.454042434692383
1778601121059511510,13.51351151,3.4378879070281982,-0.18903298676013947,9.399605751037598
1778601121070287812,13.524287812,3.4378879070281982,-0.18903298676013947,9.399605751037598
1778601121081064010,13.535064010000001,3.401397466659546,-0.24646073579788208,9.375677108764648
1778601121091840312,13.545840312000001,3.401397466659546,-0.24646073579788208,9.375677108764648
1778601121102616614,13.556616614000001,3.3678979873657227,-0.2590230405330658,9.213563919067383
1778601121113392812,13.567392812000001,3.3678979873657227,-0.2590230405330658,9.213563919067383
1778601121124169114,13.578169114000001,3.087339401245117,-0.23030917346477509,9.256035804748535
1778601121134945416,13.588945416000001,2.9353952407836914,-0.19381862878799438,9.403194427490234
1778601121145721718,13.599721718000001,3.166900873184204,-0.20039889216423035,9.507881164550781
1778601121156497916,13.610497916000002,3.166900873184204,-0.20039889216423035,9.507881164550781
1778601121167274218,13.621274218000002,3.3589248657226562,-0.16510476171970367,9.428318977355957
1778601121178050520,13.632050520000002,3.3589248657226562,-0.16510476171970367,9.428318977355957
1778601121188826823,13.642826823,3.2368907928466797,-0.1621137410402298,9.383454322814941
1778601121199603020,13.65360302,3.2368907928466797,-0.1621137410402298,9.383454322814941
1778601121210379323,13.664379323,3.4337005615234375,-0.3194418251514435,9.493523597717285
1778601121221155625,13.675155625,3.4337005615234375,-0.3194418251514435,9.493523597717285
1778601121231931927,13.685931927,3.215355396270752,-0.35054850578308105,9.290133476257324
1778601121242708125,13.696708125,3.215355396270752,-0.35054850578308105,9.290133476257324
1778601121253484427,13.707484427,3.152543783187866,-0.4414757788181305,9.366703987121582
1778601121264260729,13.718260729,3.3924243450164795,-0.42352959513664246,9.236893653869629
1778601121275037031,13.729037031,3.613760471343994,-0.43190449476242065,9.289535522460938
1778601121285813229,13.739813229000001,3.613760471343994,-0.43190449476242065,9.289535522460938
1778601121296589531,13.750589531000001,3.7190446853637695,-0.3242274820804596,9.416953086853027
1778601121307365833,13.761365833000001,3.7190446853637695,-0.3242274820804596,9.416953086853027
1778601121318142135,13.772142135000001,3.5371899604797363,-0.22911277413368225,9.387042999267578
1778601121328918437,13.782918437000001,3.5371899604797363,-0.22911277413368225,9.387042999267578
1778601121339694635,13.793694635000001,3.1752755641937256,-0.17766708135604858,9.30867862701416
1778601121350470937,13.804470937000001,3.1752755641937256,-0.17766708135604858,9.30867862701416
1778601121361247239,13.815247239000001,3.0825538635253906,0.03768695518374443,9.193822860717773
1778601121372023541,13.826023541000001,3.0825538635253906,0.03768695518374443,9.193822860717773
1778601121382799791,13.836799791,3.6221351623535156,-0.014955141581594944,9.270991325378418
1778601121393576041,13.847576041000002,3.6221351623535156,-0.014955141581594944,9.270991325378418
1778601121404352343,13.858352343000002,3.593421459197998,0.018544375896453857,9.22433090209961
1778601121415128645,13.869128645,3.6939198970794678,-0.03469592705368996,9.1112699508667
1778601121425904948,13.879904948,3.6981074810028076,-0.08973085135221481,9.136993408203125
1778601121436681250,13.89068125,3.744767427444458,-0.15672987699508667,9.256035804748535
1778601121447457552,13.901457552,3.7603209018707275,-0.26201409101486206,9.18425178527832
1778601121458233750,13.91223375,3.7603209018707275,-0.26201409101486206,9.18425178527832
1778601121469010052,13.923010052,3.4241292476654053,-0.30508488416671753,9.16869831085205
1778601121479786354,13.933786354,3.3475589752197266,-0.2638086974620819,9.015557289123535
1778601121490562656,13.944562656,3.5754752159118652,-0.20817556977272034,8.986245155334473
1778601121501338958,13.955338958,3.5754752159118652,-0.20817556977272034,8.986245155334473
1778601121512115260,13.96611526,3.789034605026245,-0.3936193287372589,9.229117393493652
1778601121522891562,13.976891562,3.789034605026245,-0.3936193287372589,9.229117393493652
1778601121533667864,13.987667864,3.483351469039917,-0.33379876613616943,9.31884765625
1778601121544444166,13.998444166,3.483351469039917,-0.33379876613616943,9.31884765625
1778601121555220468,14.009220468,3.500101327896118,-0.3068794906139374,9.33440113067627
1778601121565996770,14.01999677,3.500101327896118,-0.3068794906139374,9.33440113067627
1778601121576773020,14.030773020000002,3.4474592208862305,-0.26440688967704773,9.205188751220703
1778601121587549270,14.04154927,3.4474592208862305,-0.26440688967704773,9.205188751220703
1778601121598325573,14.052325573000001,3.524029493331909,-0.3433700501918793,9.145966529846191
1778601121609101875,14.063101875000001,3.524029493331909,-0.3433700501918793,9.145966529846191
1778601121619878177,14.073878177000001,3.655036687850952,-0.5784648656845093,9.178269386291504
1778601121630654479,14.084654479000001,3.655036687850952,-0.5784648656845093,9.178269386291504
1778601121641430781,14.095430781000001,3.5850465297698975,-0.6580262184143066,9.138189315795898
1778601121652207083,14.106207083000001,3.5850465297698975,-0.6580262184143066,9.138189315795898
1778601121662983385,14.116983385000001,3.3535408973693848,-0.6927221417427063,9.046066284179688
1778601121673759687,14.127759687000001,3.3535408973693848,-0.6927221417427063,9.046066284179688
1778601121684535989,14.138535989000001,3.157329559326172,-0.6819544434547424,9.214759826660156
1778601121695312291,14.149312291000001,3.157329559326172,-0.6819544434547424,9.214759826660156
1778601121706088593,14.160088593000001,3.2057840824127197,-0.5276173949241638,9.492327690124512
1778601121716864895,14.170864895000001,3.2057840824127197,-0.5276173949241638,9.492327690124512
1778601121727641198,14.181641198000001,3.5294134616851807,-0.44446679949760437,9.588040351867676
1778601121738417500,14.192417500000001,3.5294134616851807,-0.44446679949760437,9.588040351867676
