time,seconds_elapsed,z,y,x
1778601107546000000,0.0,0.005192350596189499,0.050090912729501724,0.054214250296354294
1778601107556775937,0.010775937000000001,-0.0019853105768561363,0.04001164436340332,0.06368265300989151
1778601107567551875,0.021551875,-0.0,0.045967575162649155,0.052687086164951324
1778601107578327812,0.032327812000000004,0.009315688163042068,0.035735588520765305,0.031001387163996696
1778601107589103750,0.04310375,0.010995565913617611,0.002443459117785096,0.017715077847242355
1778601107599879687,0.053879687,0.009773836471140385,-0.0032070400193333626,0.013897174037992954
1778601107610655677,0.06465567700000001,0.012522728182375431,0.016340631991624832,0.0013744457392022014
1778601107621431562,0.07543156200000001,0.014202605932950974,0.018325943499803543,-0.023518294095993042
1778601107632207604,0.08620760400000001,0.0154243353754282,0.017104214057326317,-0.04459312930703163
1778601107642983541,0.096983541,0.021991131827235222,0.02367101050913334,-0.05696314200758934
1778601107653759479,0.107759479,0.02779434807598591,0.02977965772151947,-0.047494735568761826
1778601107664535416,0.118535416,0.02367101050913334,0.025350889191031456,-0.017715077847242355
1778601107675311406,0.12931140600000002,0.014660755172371864,0.02107483521103859,0.011453714221715927
1778601107686087395,0.140087395,0.005192350596189499,0.011911863461136818,0.02779434807598591
1778601107696863333,0.15086333300000002,-0.004123337101191282,0.002443459117785096,0.02412915788590908
1778601107707639270,0.16163927,-0.016340631991624832,-0.016798781231045723,0.014660755172371864
1778601107718415260,0.17241526000000001,-0.024434590712189674,-0.028405211865901947,0.0062613640911877155
1778601107729191145,0.183191145,-0.022754713892936707,-0.01511890348047018,-0.004428769461810589
1778601107739967187,0.193967187,-0.012980876490473747,0.001221729558892548,-0.017715077847242355
1778601107750743125,0.20474312500000003,-0.001679878099821508,0.010079269297420979,-0.01893680728971958
1778601107761519062,0.215519062,-0.003665188793092966,0.007635809946805239,-0.019853105768561363
1778601107772295000,0.22629500000000002,-0.007024944759905338,0.008093958720564842,-0.016187917441129684
1778601107783071041,0.237071041,-0.010537417605519295,0.016187917441129684,-0.010384701192378998
1778601107793846979,0.24784697900000002,-0.014966187067329884,0.028099779039621353,-0.003665188793092966
1778601107804622916,0.25862291600000004,-0.018784092739224434,0.020769402384757996,-0.001832594396546483
1778601107815398958,0.269398958,-0.026878049597144127,-0.0,-0.009621120058000088
1778601107826174895,0.28017489500000003,-0.02932151034474373,-0.014660755172371864,-0.012980876490473747
1778601107836950833,0.290950833,-0.029626941308379173,-0.013439024798572063,-0.008093958720564842
1778601107847726823,0.30172682300000003,-0.028863361105322838,-0.010537417605519295,0.0001527161948615685
1778601107858502812,0.312502812,-0.02367101050913334,0.000305432389723137,0.002901607658714056
1778601107869278750,0.32327875,-0.01588248461484909,0.014202605932950974,0.004886918235570192
1778601107880054791,0.334054791,-0.012980876490473747,0.013744457624852657,0.001832594396546483
1778601107890830729,0.344830729,-0.010995565913617611,0.012980876490473747,-0.0030543238390237093
1778601107901606666,0.355606666,-0.009315688163042068,0.026878049597144127,0.00045814859913662076
1778601107912382708,0.366382708,-0.011759147047996521,0.0435241162776947,-0.001221729558892548
1778601107923158645,0.377158645,-0.013133592903614044,0.03497200831770897,-0.013286309316754341
1778601107933934687,0.387934687,-0.011759147047996521,0.017104214057326317,-0.024434590712189674
1778601107944710625,0.39871062500000004,-0.010537417605519295,0.01435532234609127,-0.03283398225903511
1778601107955486666,0.409486666,-0.008857538923621178,0.016798781231045723,-0.02916879393160343
1778601107966262604,0.42026260400000004,-0.007024944759905338,0.032681263983249664,-0.019853105768561363
1778601107977038645,0.43103864500000005,-0.00946840364485979,0.0435241162776947,-0.012522728182375431
1778601107987814583,0.44181458300000004,-0.0102319847792387,0.03588830679655075,-0.011759147047996521
1778601107998590625,0.452590625,-0.007788525894284248,0.02153298258781433,-0.009162971749901772
1778601108009366666,0.46336666600000004,0.0007635809597559273,0.03130681812763214,-0.009315688163042068
1778601108020142604,0.474142604,0.007635809946805239,0.04153880476951599,-0.024281874299049377
1778601108030918645,0.48491864500000004,0.010995565913617611,0.0461202897131443,-0.04153880476951599
1778601108041694635,0.49569463500000005,0.009315688163042068,0.020311253145337105,-0.04917461425065994
1778601108052470625,0.5064706250000001,0.002901607658714056,0.001679878099821508,-0.04153880476951599
1778601108063246666,0.517246666,-0.0,-0.003665188793092966,-0.03252854943275452
1778601108074022708,0.5280227080000001,-0.0019853105768561363,-0.0009162971982732415,-0.027947064489126205
1778601108084798645,0.5387986450000001,0.0019853105768561363,-0.0021380267571657896,-0.027488915249705315
1778601108095574687,0.549574687,0.0009162971982732415,-0.011300998739898205,-0.02932151034474373
1778601108106350729,0.560350729,0.001221729558892548,-0.016340631991624832,-0.016187917441129684
1778601108117126770,0.57112677,-0.003665188793092966,-0.016340631991624832,0.004886918235570192
1778601108127902708,0.581902708,-0.005345067009329796,-0.010537417605519295,0.02626718580722809
1778601108138678750,0.59267875,-0.0021380267571657896,0.0032070400193333626,0.043982263654470444
1778601108149454791,0.603454791,0.004123337101191282,0.012522728182375431,0.04566214233636856
1778601108160230833,0.614230833,0.012980876490473747,0.026878049597144127,0.040317077189683914
1778601108171006875,0.6250068750000001,0.012217295356094837,0.032681263983249664,0.04046979174017906
1778601108181782916,0.635782916,0.006566796451807022,0.016187917441129684,0.03023780696094036
1778601108192558958,0.6465589580000001,0.0032070400193333626,0.001221729558892548,0.014813470654189587
1778601108203335000,0.657335,0.005345067009329796,-0.0019853105768561363,-0.004886918235570192
1778601108214111041,0.6681110410000001,0.008857538923621178,-0.003665188793092966,-0.0154243353754282
1778601108224887083,0.678887083,0.005345067009329796,-0.005650499369949102,-0.0015271619195118546
1778601108235663125,0.689663125,0.0007635809597559273,-0.003970621153712273,0.004276053514331579
1778601108246439166,0.700439166,0.0021380267571657896,0.010995565913617611,0.002901607658714056
1778601108257215208,0.711215208,0.005345067009329796,0.017867794260382652,-0.005650499369949102
1778601108267991250,0.7219912500000001,0.005650499369949102,0.008093958720564842,-0.015271619893610477
1778601108278767291,0.732767291,0.005192350596189499,-0.0019853105768561363,-0.018631376326084137
1778601108289543333,0.7435433330000001,0.005345067009329796,-0.004886918235570192,-0.011606430634856224
1778601108300319427,0.7543194270000001,-0.001221729558892548,-0.011300998739898205,0.002443459117785096
1778601108311095520,0.76509552,-0.005345067009329796,-0.006414080038666725,0.013897174037992954
1778601108321871562,0.7758715620000001,-0.000305432389723137,0.012522728182375431,0.024892739951610565
1778601108332647604,0.786647604,0.002901607658714056,0.017562363296747208,0.031001387163996696
1778601108343423645,0.7974236450000001,0.002443459117785096,0.01802051067352295,0.033597562462091446
1778601108354199791,0.8081997910000001,0.004123337101191282,0.022907428443431854,0.031154103577136993
1778601108364975833,0.8189758330000001,0.008857538923621178,0.04001164436340332,0.025809036567807198
1778601108375751875,0.829751875,0.004123337101191282,0.0334448479115963,0.012217295356094837
1778601108386528020,0.84052802,-0.005192350596189499,0.020769402384757996,-0.005650499369949102
1778601108397304062,0.8513040620000001,-0.007635809946805239,0.01588248461484909,-0.013439024798572063
1778601108408080104,0.862080104,-0.009010255336761475,0.009315688163042068,-0.02260199747979641
1778601108418856250,0.87285625,-0.0032070400193333626,0.01435532234609127,-0.027488915249705315
1778601108429632291,0.8836322910000001,0.005345067009329796,0.009315688163042068,-0.02764163166284561
1778601108440408437,0.8944084370000001,0.012522728182375431,0.008093958720564842,-0.021838415414094925
1778601108451184479,0.9051844790000001,0.01802051067352295,0.014202605932950974,-0.008552107028663158
1778601108461960625,0.9159606250000001,0.020769402384757996,0.031001387163996696,0.007483093533664942
1778601108472736666,0.926736666,0.0204639695584774,0.03756818547844887,0.026878049597144127
1778601108483512812,0.937512812,0.015577051788568497,0.03588830679655075,0.04367683082818985
1778601108494288854,0.9482888540000001,0.011300998739898205,0.035735588520765305,0.05787943676114082
1778601108505065000,0.9590650000000001,0.00946840364485979,0.0386371985077858,0.0639880821108818
1778601108515841093,0.9698410930000001,0.005803215317428112,0.0256563201546669,0.060322895646095276
1778601108526617187,0.9806171870000001,0.0027488914784044027,0.009010255336761475,0.04413498193025589
1778601108537393333,0.9913933330000001,0.003970621153712273,0.006872228812426329,0.02626718580722809
1778601108548169479,1.002169479,0.005345067009329796,0.012980876490473747,-0.0027488914784044027
1778601108558945520,1.0129455200000002,0.005345067009329796,0.01588248461484909,-0.021380268037319183
1778601108569721666,1.0237216660000001,-0.0,0.017867794260382652,-0.03497200831770897
1778601108580497812,1.0344978120000001,-0.007024944759905338,0.014202605932950974,-0.04459312930703163
1778601108591273854,1.0452738540000002,-0.016187917441129684,-0.00045814859913662076,-0.04062250629067421
1778601108602050000,1.0560500000000002,-0.022296564653515816,0.001221729558892548,-0.02519817277789116
1778601108612826145,1.066826145,-0.025350889191031456,0.00946840364485979,-0.013286309316754341
1778601108623602291,1.077602291,-0.024740023538470268,0.011453714221715927,-0.0054977829568088055
1778601108634378437,1.088378437,-0.023976443335413933,0.0007635809597559273,-0.006414080038666725
1778601108645154531,1.0991545310000002,-0.016187917441129684,-0.003665188793092966,-0.01649334840476513
1778601108655930729,1.109930729,-0.007024944759905338,0.000305432389723137,-0.018173227086663246
1778601108666706823,1.1207068230000001,-0.004886918235570192,0.006108647678047419,-0.014660755172371864
1778601108677482916,1.1314829160000002,-0.0,0.017562363296747208,-0.010995565913617611
1778601108688259114,1.142259114,-0.0019853105768561363,0.016798781231045723,-0.008857538923621178
1778601108699035208,1.1530352080000001,-0.005803215317428112,0.0102319847792387,-0.008093958720564842
1778601108709811406,1.163811406,-0.008857538923621178,0.005192350596189499,0.0013744457392022014
1778601108720587500,1.1745875000000001,-0.010079269297420979,0.005803215317428112,0.01893680728971958
1778601108731363698,1.185363698,-0.011453714221715927,0.019853105768561363,0.03390299528837204
1778601108742139791,1.196139791,-0.010690134018659592,0.023976443335413933,0.03481929376721382
1778601108752915989,1.206915989,-0.008246674202382565,0.008246674202382565,0.023212861269712448
1778601108763692187,1.2176921870000001,-0.003665188793092966,-0.010995565913617611,0.01649334840476513
1778601108774468333,1.2284683330000001,-0.001221729558892548,-0.015577051788568497,0.012675444595515728
1778601108785244479,1.2392444790000001,0.004428769461810589,-0.010537417605519295,0.007941242307424545
1778601108796020625,1.250020625,0.008552107028663158,-0.005192350596189499,-0.000305432389723137
1778601108806796770,1.26079677,0.012522728182375431,-0.0015271619195118546,-0.009621120058000088
1778601108817572968,1.271572968,0.013744457624852657,-0.02153298258781433,-0.01695149764418602
1778601108828349166,1.2823491660000002,0.008093958720564842,-0.04306596517562866,-0.02153298258781433
1778601108839125312,1.2931253120000001,0.009010255336761475,-0.02611446939408779,-0.02718348242342472
1778601108849901458,1.3039014580000001,0.00946840364485979,-0.005192350596189499,-0.026878049597144127
1778601108860677656,1.314677656,0.006414080038666725,-0.007330377586185932,-0.019394956529140472
1778601108871453854,1.325453854,-0.002901607658714056,-0.023976443335413933,-0.006108647678047419
1778601108882230052,1.3362300520000001,-0.010690134018659592,-0.02932151034474373,0.001832594396546483
1778601108893006250,1.3470062500000002,-0.0102319847792387,-0.018325943499803543,0.008704823441803455
1778601108903782395,1.357782395,-0.013439024798572063,-0.01435532234609127,0.008246674202382565
1778601108914558645,1.368558645,-0.016340631991624832,-0.012980876490473747,-0.0
1778601108925334791,1.379334791,-0.017867794260382652,-0.029626941308379173,0.004123337101191282
1778601108936110937,1.390110937,-0.016646064817905426,-0.029016077518463135,0.012217295356094837
1778601108946887187,1.4008871870000001,-0.011911863461136818,-0.009010255336761475,0.02000582218170166
1778601108957663333,1.4116633330000001,-0.013439024798572063,-0.005345067009329796,0.02214384824037552
1778601108968439583,1.422439583,-0.011300998739898205,-0.007330377586185932,0.0102319847792387
1778601108979215833,1.433215833,-0.009315688163042068,-0.012522728182375431,-0.004276053514331579
1778601108989991979,1.443991979,-0.011759147047996521,-0.015577051788568497,-0.015271619893610477
1778601109000768229,1.4547682290000001,-0.013897174037992954,-0.020769402384757996,-0.019853105768561363
1778601109011544427,1.465544427,-0.014202605932950974,-0.01954767294228077,-0.017867794260382652
1778601109022320625,1.476320625,-0.01435532234609127,-0.011453714221715927,-0.0032070400193333626
1778601109033096823,1.4870968230000001,-0.01954767294228077,-0.010995565913617611,0.013439024798572063
1778601109043873020,1.49787302,-0.013133592903614044,0.0027488914784044027,0.021685699000954628
1778601109054649270,1.50864927,-0.00045814859913662076,0.022907428443431854,0.017562363296747208
1778601109065425520,1.5194255200000002,0.004123337101191282,0.022907428443431854,0.011148282326757908
1778601109076201718,1.530201718,-0.000305432389723137,0.006108647678047419,0.01282816007733345
1778601109086977916,1.5409779160000001,-0.003359756199643016,0.005803215317428112,0.011606430634856224
1778601109097754166,1.551754166,-0.00045814859913662076,0.011453714221715927,0.004886918235570192
1778601109108530416,1.5625304160000002,0.006566796451807022,0.010690134018659592,-0.003970621153712273
1778601109119306614,1.573306614,0.010079269297420979,0.002443459117785096,-0.019394956529140472
1778601109130082916,1.584082916,0.015577051788568497,0.008246674202382565,-0.028863361105322838
1778601109140859114,1.5948591140000001,0.023518294095993042,0.02932151034474373,-0.018325943499803543
1778601109151635312,1.6056353120000002,0.016187917441129684,0.02718348242342472,-0.004886918235570192
1778601109162411614,1.616411614,0.008246674202382565,0.020311253145337105,-0.0030543238390237093
1778601109173187812,1.627187812,0.010690134018659592,0.020769402384757996,-0.007941242307424545
1778601109183964062,1.637964062,0.007788525894284248,0.0015271619195118546,-0.017867794260382652
1778601109194740312,1.6487403120000002,0.007635809946805239,-0.0154243353754282,-0.018325943499803543
1778601109205516562,1.659516562,0.010079269297420979,-0.022296564653515816,-0.013744457624852657
1778601109216292812,1.670292812,0.012217295356094837,-0.018325943499803543,-0.013286309316754341
1778601109227069114,1.681069114,0.014966187067329884,-0.010537417605519295,-0.014508038759231567
1778601109237845312,1.691845312,0.016646064817905426,-0.000305432389723137,-0.021380268037319183
1778601109248621614,1.7026216140000001,0.021227551624178886,0.01435532234609127,-0.02871064469218254
1778601109259397812,1.7133978120000002,0.020769402384757996,0.008552107028663158,-0.03543015569448471
1778601109270174114,1.7241741140000002,0.018631376326084137,-0.004123337101191282,-0.0308486707508564
1778601109280950312,1.734950312,0.010995565913617611,-0.021685699000954628,-0.006872228812426329
1778601109291726614,1.745726614,0.002443459117785096,-0.017867794260382652,0.01847865991294384
1778601109302502916,1.756502916,0.0027488914784044027,0.006872228812426329,0.04046979174017906
1778601109313279218,1.767279218,0.002901607658714056,0.007330377586185932,0.05177079141139984
1778601109324055416,1.7780554160000002,0.002901607658714056,-0.0027488914784044027,0.04764745384454727
1778601109334831718,1.7888317180000002,0.010079269297420979,0.006566796451807022,0.03145953640341759
1778601109345608020,1.7996080200000002,0.00946840364485979,0.006566796451807022,0.01893680728971958
1778601109356384323,1.810384323,0.0027488914784044027,-0.004581485874950886,0.01511890348047018
1778601109367160625,1.821160625,-0.004123337101191282,-0.016187917441129684,0.010690134018659592
1778601109377936823,1.8319368230000002,-0.0015271619195118546,0.0019853105768561363,0.011911863461136818
1778601109388713125,1.8427131250000002,0.003359756199643016,0.015577051788568497,0.016798781231045723
1778601109399489427,1.8534894270000002,-0.00045814859913662076,0.004428769461810589,0.0102319847792387
1778601109410265729,1.8642657290000002,-0.0027488914784044027,-0.007788525894284248,0.005803215317428112
1778601109421042031,1.8750420310000002,-0.005192350596189499,-0.01802051067352295,0.003359756199643016
1778601109431818333,1.885818333,-0.004886918235570192,-0.022449281066656113,-0.005650499369949102
1778601109442594635,1.896594635,0.0009162971982732415,-0.014966187067329884,-0.012980876490473747
1778601109453370937,1.907370937,0.008246674202382565,-0.005803215317428112,-0.018631376326084137
1778601109464147239,1.918147239,0.010690134018659592,-0.011911863461136818,-0.02107483521103859
1778601109474923541,1.928923541,0.006872228812426329,-0.025961752980947495,-0.007941242307424545
1778601109485699843,1.939699843,-0.0027488914784044027,-0.051618073135614395,0.013897174037992954
1778601109496476145,1.950476145,-0.004428769461810589,-0.03390299528837204,0.04214967042207718
1778601109507252448,1.9612524480000002,0.005192350596189499,-0.001221729558892548,0.056199558079242706
1778601109518028750,1.9720287500000002,0.008093958720564842,-0.0015271619195118546,0.05299251899123192
1778601109528805052,1.9828050520000002,0.008857538923621178,-0.004581485874950886,0.039248060435056686
1778601109539581354,1.993581354,0.012522728182375431,0.001679878099821508,0.034666575491428375
1778601109550357656,2.0043576560000003,0.010690134018659592,-0.004581485874950886,0.03711003437638283
1778601109561134062,2.015134062,0.003970621153712273,-0.0102319847792387,0.03802633285522461
1778601109571910364,2.025910364,-0.006414080038666725,-0.018784092739224434,0.03222311660647392
1778601109582686666,2.036686666,-0.006414080038666725,-0.010995565913617611,0.017715077847242355
1778601109593462968,2.047462968,-0.0,-0.013897174037992954,-0.003970621153712273
1778601109604239270,2.05823927,0.004886918235570192,-0.028099779039621353,-0.023518294095993042
1778601109615015625,2.069015625,0.010537417605519295,-0.025961752980947495,-0.03909534588456154
1778601109625791979,2.0797919790000003,0.014660755172371864,-0.012522728182375431,-0.04153880476951599
1778601109636568281,2.090568281,0.013897174037992954,0.006872228812426329,-0.036651886999607086
1778601109647344583,2.101344583,0.006414080038666725,0.00045814859913662076,-0.03176496922969818
1778601109658120885,2.112120885,-0.005192350596189499,-0.018325943499803543,-0.03176496922969818
1778601109668897291,2.122897291,-0.004123337101191282,0.001679878099821508,-0.029932374134659767
1778601109679673593,2.133673593,-0.003359756199643016,0.028863361105322838,-0.01588248461484909
1778601109690449895,2.144449895,-0.014660755172371864,0.021991131827235222,0.007941242307424545
1778601109701226302,2.155226302,-0.025350889191031456,0.005650499369949102,0.023365577682852745
1778601109712002604,2.166002604,-0.02718348242342472,-0.003359756199643016,0.022907428443431854
1778601109722778906,2.176778906,-0.022296564653515816,-0.012522728182375431,0.008704823441803455
1778601109733555312,2.187555312,-0.006872228812426329,-0.012675444595515728,-0.0010690133785828948
1778601109744331614,2.198331614,-0.000305432389723137,-0.007330377586185932,-0.000305432389723137
1778601109755107916,2.2091079160000002,-0.002443459117785096,-0.0032070400193333626,0.006108647678047419
1778601109765884323,2.219884323,-0.002443459117785096,0.006414080038666725,0.007024944759905338
1778601109776660625,2.230660625,-0.006414080038666725,0.007024944759905338,-0.000305432389723137
1778601109787437031,2.2414370310000002,-0.008093958720564842,0.006566796451807022,-0.008093958720564842
1778601109798213333,2.2522133330000003,-0.004581485874950886,0.008857538923621178,-0.008552107028663158
1778601109808989687,2.262989687,-0.008552107028663158,-0.004428769461810589,-0.003970621153712273
1778601109819766041,2.273766041,-0.010537417605519295,-0.005345067009329796,0.0021380267571657896
1778601109830542395,2.2845423950000003,-0.0021380267571657896,0.007635809946805239,0.005803215317428112
1778601109841318750,2.2953187500000003,0.0007635809597559273,0.006414080038666725,0.003665188793092966
1778601109852095104,2.306095104,0.006414080038666725,-0.0015271619195118546,-0.0032070400193333626
1778601109862871458,2.316871458,0.013133592903614044,-0.004581485874950886,-0.001832594396546483
1778601109873647812,2.327647812,0.011300998739898205,0.0015271619195118546,0.004276053514331579
1778601109884424166,2.3384241660000002,0.007330377586185932,0.015577051788568497,0.01588248461484909
1778601109895200573,2.349200573,-0.0015271619195118546,0.008246674202382565,0.02611446939408779
1778601109905976875,2.359976875,-0.007635809946805239,0.004886918235570192,0.027336198836565018
1778601109916753281,2.3707532810000003,-0.011759147047996521,0.004123337101191282,0.023823726922273636
1778601109927529583,2.3815295830000003,-0.01588248461484909,0.004886918235570192,0.012217295356094837
1778601109938305989,2.392305989,-0.01588248461484909,0.013439024798572063,-0.001221729558892548
1778601109949082395,2.403082395,-0.010690134018659592,0.017562363296747208,-0.009773836471140385
1778601109959858698,2.4138586980000003,-0.009315688163042068,0.005803215317428112,-0.011300998739898205
1778601109970635104,2.424635104,-0.004886918235570192,0.002443459117785096,-0.007941242307424545
1778601109981411458,2.4354114580000004,0.005803215317428112,0.00946840364485979,-0.0007635809597559273
1778601109992187812,2.4461878120000002,0.012675444595515728,0.007024944759905338,0.0038179049734026194
1778601110002964218,2.456964218,0.011453714221715927,-0.002443459117785096,0.006566796451807022
1778601110013740625,2.4677406250000002,0.015577051788568497,0.010079269297420979,0.004276053514331579
1778601110024516979,2.478516979,0.012675444595515728,0.0308486707508564,0.0021380267571657896
1778601110035293333,2.489293333,0.0027488914784044027,0.035124726593494415,-0.007635809946805239
1778601110046069739,2.500069739,-0.006108647678047419,0.03222311660647392,-0.01740964688360691
1778601110056846145,2.5108461450000004,-0.011759147047996521,0.03176496922969818,-0.023518294095993042
1778601110067622500,2.5216225000000003,-0.016340631991624832,0.022296564653515816,-0.025045456364750862
1778601110078398854,2.532398854,-0.019242240116000175,0.007635809946805239,-0.018631376326084137
1778601110089175260,2.54317526,-0.01588248461484909,0.004123337101191282,-0.011759147047996521
1778601110099951666,2.553951666,-0.008552107028663158,0.011759147047996521,-0.007635809946805239
1778601110110728073,2.564728073,0.001221729558892548,0.012980876490473747,-0.008857538923621178
1778601110121504479,2.575504479,0.013744457624852657,0.011759147047996521,-0.018173227086663246
1778601110132280833,2.586280833,0.018631376326084137,-0.0009162971982732415,-0.012217295356094837
1778601110143057187,2.5970571870000003,0.013439024798572063,-0.0256563201546669,0.0009162971982732415
1778601110153833593,2.607833593,0.010537417605519295,-0.025961752980947495,0.010690134018659592
1778601110164610000,2.6186100000000003,0.007788525894284248,-0.016340631991624832,0.010995565913617611
1778601110175386406,2.629386406,0.003665188793092966,-0.012522728182375431,0.010690134018659592
1778601110186162812,2.6401628120000002,0.000305432389723137,-0.012980876490473747,0.011453714221715927
1778601110196939218,2.650939218,-0.004886918235570192,-0.005803215317428112,0.004581485874950886
1778601110207715625,2.6617156250000003,-0.007635809946805239,-0.001679878099821508,0.004276053514331579
1778601110218492031,2.672492031,-0.008857538923621178,-0.013133592903614044,0.0038179049734026194
1778601110229268437,2.683268437,-0.010995565913617611,-0.03176496922969818,-0.005192350596189499
1778601110240044843,2.6940448430000004,-0.007788525894284248,-0.028099779039621353,-0.005192350596189499
1778601110250821250,2.70482125,-0.0027488914784044027,-0.015577051788568497,0.004886918235570192
1778601110261597656,2.7155976560000004,-0.006414080038666725,-0.023518294095993042,0.017562363296747208
1778601110272374062,2.726374062,-0.0032070400193333626,-0.023976443335413933,0.017256930470466614
1778601110283150468,2.7371504680000003,0.004581485874950886,-0.022449281066656113,0.012675444595515728
1778601110293926875,2.747926875,0.0021380267571657896,-0.026572618633508682,0.005345067009329796
1778601110304703281,2.7587032810000003,-0.0007635809597559273,-0.01511890348047018,0.001221729558892548
1778601110315479687,2.769479687,0.001221729558892548,-0.0015271619195118546,-0.004428769461810589
1778601110326256145,2.780256145,-0.004428769461810589,-0.012217295356094837,-0.001832594396546483
1778601110337032604,2.791032604,-0.010537417605519295,-0.023212861269712448,0.009162971749901772
1778601110347808958,2.801808958,-0.008552107028663158,-0.010537417605519295,0.022449281066656113
1778601110358585416,2.812585416,-0.005345067009329796,0.0007635809597559273,0.033139415085315704
1778601110369361823,2.8233618230000004,0.00045814859913662076,0.004886918235570192,0.029932374134659767
1778601110380138229,2.834138229,0.010537417605519295,0.01802051067352295,0.01511890348047018
1778601110390914687,2.844914687,0.014660755172371864,0.013439024798572063,-0.007635809946805239
1778601110401691041,2.855691041,0.017562363296747208,0.001679878099821508,-0.029626941308379173
1778601110412467500,2.8664675,0.019853105768561363,-0.006872228812426329,-0.04214967042207718
1778601110423243958,2.877243958,0.016340631991624832,-0.011453714221715927,-0.04520399495959282
1778601110434020364,2.8880203640000004,0.011759147047996521,-0.005803215317428112,-0.03695731982588768
1778601110444796770,2.89879677,0.004886918235570192,-0.006414080038666725,-0.025045456364750862
1778601110455573229,2.9095732290000003,0.0027488914784044027,-0.002443459117785096,-0.010842849500477314
1778601110466349687,2.9203496870000003,0.004123337101191282,0.011759147047996521,0.013897174037992954
1778601110477126093,2.931126093,-0.0,0.008093958720564842,0.036804601550102234
1778601110487902500,2.9419025000000003,0.0007635809597559273,0.013744457624852657,0.047036588191986084
1778601110498678958,2.9526789580000004,0.002443459117785096,0.025961752980947495,0.04810560122132301
1778601110509455416,2.9634554160000004,-0.00045814859913662076,0.02367101050913334,0.03390299528837204
1778601110520231823,2.974231823,-0.003359756199643016,0.013744457624852657,0.01435532234609127
1778601110531008229,2.9850082290000004,-0.006414080038666725,-0.003359756199643016,-0.010079269297420979
1778601110541784687,2.995784687,-0.002443459117785096,-0.008552107028663158,-0.018173227086663246
1778601110552561145,3.006561145,-0.004428769461810589,-0.0027488914784044027,-0.011300998739898205
1778601110563337604,3.017337604,-0.007788525894284248,-0.005192350596189499,0.001832594396546483
1778601110574114062,3.028114062,-0.008857538923621178,-0.0021380267571657896,0.010384701192378998
1778601110584890468,3.0388904680000004,-0.006414080038666725,-0.00045814859913662076,0.008552107028663158
1778601110595666875,3.049666875,0.00045814859913662076,0.0019853105768561363,-0.003665188793092966
1778601110606443333,3.0604433330000003,0.004886918235570192,-0.0009162971982732415,-0.010842849500477314
1778601110617219791,3.0712197910000003,0.004581485874950886,-0.0009162971982732415,-0.000305432389723137
1778601110627996250,3.08199625,-0.0015271619195118546,0.007788525894284248,0.020158538594841957
1778601110638772708,3.092772708,-0.001221729558892548,0.023976443335413933,0.034666575491428375
1778601110649549114,3.103549114,0.0019853105768561363,0.03634645417332649,0.03390299528837204
1778601110660325520,3.1143255200000004,0.004428769461810589,0.03329212963581085,0.01802051067352295
1778601110671101979,3.125101979,0.008857538923621178,0.03222311660647392,-0.001221729558892548
1778601110681878437,3.135878437,0.012675444595515728,0.026572618633508682,-0.015271619893610477
1778601110692654895,3.146654895,0.007788525894284248,0.007635809946805239,-0.013286309316754341
1778601110703431354,3.1574313540000003,0.00045814859913662076,0.00045814859913662076,0.0062613640911877155
1778601110714207760,3.16820776,-0.004123337101191282,0.008093958720564842,0.01847865991294384
1778601110724984166,3.1789841660000002,-0.0015271619195118546,0.01588248461484909,0.015271619893610477
1778601110735760677,3.189760677,0.00946840364485979,0.023212861269712448,0.0038179049734026194
1778601110746537083,3.2005370830000004,0.01588248461484909,0.0256563201546669,-0.005192350596189499
1778601110757313541,3.211313541,0.013744457624852657,0.0308486707508564,-0.008399390615522861
1778601110768090000,3.22209,0.013897174037992954,0.04367683082818985,-0.010842849500477314
1778601110778866458,3.232866458,0.017867794260382652,0.04810560122132301,-0.0154243353754282
1778601110789642916,3.243642916,0.012980876490473747,0.0308486707508564,-0.017867794260382652
1778601110800419323,3.254419323,0.009010255336761475,0.02519817277789116,-0.018173227086663246
1778601110811195833,3.2651958330000004,0.008552107028663158,0.020311253145337105,-0.017715077847242355
1778601110821972239,3.275972239,0.006414080038666725,0.012217295356094837,-0.017715077847242355
1778601110832748645,3.2867486450000003,0.0102319847792387,0.006414080038666725,-0.01282816007733345
1778601110843525104,3.297525104,0.010690134018659592,0.0102319847792387,-0.007941242307424545
1778601110854301562,3.308301562,0.016187917441129684,0.006414080038666725,-0.010384701192378998
1778601110865078020,3.31907802,0.022907428443431854,0.007635809946805239,-0.017104214057326317
1778601110875854479,3.329854479,0.024892739951610565,0.0019853105768561363,-0.024434590712189674
1778601110886630885,3.3406308850000004,0.021991131827235222,-0.0032070400193333626,-0.01908952370285988
1778601110897407291,3.351407291,0.01740964688360691,-0.010690134018659592,-0.0019853105768561363
1778601110908183750,3.3621837500000002,0.0154243353754282,-0.003665188793092966,0.02260199747979641
1778601110918960208,3.3729602080000003,0.014966187067329884,0.0032070400193333626,0.04367683082818985
1778601110929736666,3.3837366660000003,0.013897174037992954,0.0009162971982732415,0.04367683082818985
1778601110940513125,3.394513125,0.019853105768561363,0.005192350596189499,0.025350889191031456
1778601110951289583,3.405289583,0.024892739951610565,0.004123337101191282,0.011148282326757908
1778601110962066041,3.416066041,0.018631376326084137,-0.004581485874950886,0.007788525894284248
1778601110972842448,3.4268424480000004,0.014966187067329884,0.007635809946805239,0.008552107028663158
1778601110983618854,3.437618854,0.010995565913617611,0.01588248461484909,0.009926552884280682
1778601110994395312,3.448395312,0.007330377586185932,0.012217295356094837,0.011911863461136818
1778601111005171770,3.45917177,0.008093958720564842,0.008552107028663158,0.006108647678047419
1778601111015948229,3.4699482290000003,0.013744457624852657,0.003665188793092966,-0.003665188793092966
1778601111026724687,3.4807246870000004,0.021991131827235222,-0.001221729558892548,-0.018325943499803543
1778601111037501093,3.491501093,0.026878049597144127,0.000305432389723137,-0.022754713892936707
1778601111048277500,3.5022775000000004,0.028863361105322838,0.010690134018659592,-0.009773836471140385
1778601111059054010,3.5130540100000003,0.02718348242342472,0.016646064817905426,0.006108647678047419
1778601111069830416,3.523830416,0.028099779039621353,0.016646064817905426,0.014813470654189587
1778601111080606875,3.534606875,0.031001387163996696,0.021227551624178886,0.02977965772151947
1778601111091383333,3.545383333,0.0256563201546669,0.009315688163042068,0.047036588191986084
1778601111102159791,3.5561597910000002,0.020769402384757996,0.004123337101191282,0.05925388261675835
1778601111112936250,3.5669362500000004,0.02519817277789116,0.02611446939408779,0.0616973415017128
1778601111123712656,3.577712656,0.026878049597144127,0.02519817277789116,0.04734202101826668
1778601111134489062,3.5884890620000003,0.024740023538470268,-0.0019853105768561363,0.03176496922969818
1778601111145265520,3.5992655200000003,0.02779434807598591,-0.010537417605519295,0.016340631991624832
1778601111156041979,3.610041979,0.03451386094093323,-0.007330377586185932,0.005345067009329796
1778601111166818437,3.620818437,0.03695731982588768,-0.006108647678047419,0.009773836471140385
1778601111177594895,3.631594895,0.03497200831770897,-0.007635809946805239,0.018784092739224434
1778601111188371302,3.6423713020000004,0.039858926087617874,0.008093958720564842,0.02000582218170166
1778601111199147708,3.653147708,0.04108065739274025,0.008093958720564842,0.017104214057326317
1778601111209924166,3.663924166,0.03329212963581085,-0.0102319847792387,0.009010255336761475
1778601111220700625,3.6747006250000003,0.03543015569448471,-0.013897174037992954,-0.0
1778601111231477083,3.6854770830000003,0.0386371985077858,-0.006566796451807022,-0.005192350596189499
1778601111242253541,3.6962535410000004,0.03695731982588768,-0.003359756199643016,-0.006108647678047419
1778601111253029948,3.707029948,0.03222311660647392,-0.004123337101191282,0.000610864779446274
1778601111263806354,3.7178063540000004,0.03023780696094036,0.007635809946805239,0.009926552884280682
1778601111274582812,3.7285828120000004,0.027336198836565018,0.01740964688360691,0.015271619893610477
1778601111285359270,3.73935927,0.025961752980947495,0.018784092739224434,0.01954767294228077
1778601111296135677,3.7501356770000003,0.028405211865901947,0.016340631991624832,0.018784092739224434
1778601111306912187,3.760912187,0.03298669680953026,0.01802051067352295,0.01588248461484909
1778601111317688593,3.7716885930000004,0.03695731982588768,0.025961752980947495,0.01359174121171236
1778601111328465000,3.782465,0.03634645417332649,0.023518294095993042,0.005039634648710489
1778601111339241458,3.7932414580000002,0.036193739622831345,0.023212861269712448,0.0013744457392022014
1778601111350017916,3.8040179160000003,0.036193739622831345,0.03695731982588768,0.0102319847792387
1778601111360794323,3.814794323,0.03329212963581085,0.0386371985077858,0.021227551624178886
1778601111371570729,3.8255707290000003,0.032681263983249664,0.041844237595796585,0.031001387163996696
1778601111382347239,3.836347239,0.0383317656815052,0.0639880821108818,0.04459312930703163
1778601111393123645,3.8471236450000004,0.036193739622831345,0.043982263654470444,0.040317077189683914
1778601111403900104,3.857900104,0.03741546720266342,0.0204639695584774,0.03237583488225937
1778601111414676145,3.8686761450000002,0.044898562133312225,0.016187917441129684,0.019700389355421066
1778601111425452968,3.8794529680000003,0.05253437161445618,0.01435532234609127,0.008704823441803455
1778601111436229375,3.890229375,0.061391908675432205,0.032070402055978775,0.005803215317428112
1778601111447005833,3.901005833,0.0668896958231926,0.024740023538470268,0.005803215317428112
1778601111457782291,3.911782291,0.06551524996757507,0.004581485874950886,0.0062613640911877155
1778601111468558698,3.9225586980000005,0.06597339361906052,0.006872228812426329,0.011911863461136818
1778601111479335104,3.933335104,0.0668896958231926,0.009773836471140385,0.016798781231045723
1778601111490111562,3.9441115620000002,0.059864748269319534,-0.0009162971982732415,0.019242240116000175
1778601111500888020,3.9548880200000003,0.054214250296354294,-0.0,0.020922118797898293
1778601111511664427,3.965664427,0.054214250296354294,0.013439024798572063,0.028557928279042244
1778601111522440937,3.9764409370000005,0.05451968312263489,0.028557928279042244,0.03222311660647392
1778601111533217343,3.987217343,0.053756099194288254,0.03130681812763214,0.031001387163996696
1778601111543993750,3.9979937500000005,0.045967575162649155,0.01740964688360691,0.028099779039621353
1778601111554770208,4.0087702080000005,0.044440411031246185,0.013133592903614044,0.033139415085315704
1778601111565546666,4.019546666,0.04306596517562866,0.008857538923621178,0.03787361457943916
1778601111576323073,4.030323073,0.03955349326133728,-0.00946840364485979,0.04367683082818985
1778601111587099479,4.0410994790000005,0.03940077871084213,-0.006414080038666725,0.05497783049941063
1778601111597875937,4.051875937,0.04978547990322113,0.013133592903614044,0.07024945318698883
1778601111608652395,4.062652395000001,0.05711585655808449,0.026878049597144127,0.07147117704153061
1778601111619428802,4.0734288020000005,0.055741410702466965,0.011453714221715927,0.056657709181308746
1778601111630205208,4.084205208,0.05711585655808449,0.007024944759905338,0.03634645417332649
1778601111640981666,4.094981666000001,0.057726722210645676,-0.00045814859913662076,0.017715077847242355
1778601111651758125,4.105758125,0.05177079141139984,-0.018325943499803543,0.008552107028663158
1778601111662534531,4.116534531,0.04978547990322113,-0.011300998739898205,0.019700389355421066
1778601111673310937,4.127310937,0.04550942778587341,0.0015271619195118546,0.04321868345141411
1778601111684087395,4.138087395,0.03543015569448471,0.0007635809597559273,0.05803215503692627
1778601111694863854,4.148863854,0.029016077518463135,-0.010995565913617611,0.07345648854970932
1778601111705640260,4.159640260000001,0.02718348242342472,-0.014966187067329884,0.07910698652267456
1778601111716416666,4.170416666,0.02977965772151947,-0.017104214057326317,0.08643736690282822
1778601111727193125,4.181193125,0.03176496922969818,-0.012980876490473747,0.10629047453403473
1778601111737969583,4.1919695830000006,0.028099779039621353,-0.008552107028663158,0.12553271651268005
1778601111748745989,4.202745989,0.020311253145337105,-0.007635809946805239,0.14110976457595825
1778601111759522395,4.213522395,0.01588248461484909,-0.004123337101191282,0.15027274191379547
1778601111770298802,4.224298802,0.012675444595515728,-0.004886918235570192,0.15118902921676636
1778601111781075312,4.235075312,-0.0007635809597559273,-0.03023780696094036,0.13209950923919678
1778601111791851718,4.245851718,-0.011300998739898205,-0.05451968312263489,0.09789107739925385
1778601111802628125,4.256628125000001,-0.014660755172371864,-0.06307178735733032,0.06643154472112656
1778601111813404583,4.267404583,-0.017562363296747208,-0.061391908675432205,0.04978547990322113
1778601111824181041,4.278181041,-0.019853105768561363,-0.048563748598098755,0.039248060435056686
1778601111834957448,4.288957448000001,-0.024892739951610565,-0.028863361105322838,0.031154103577136993
1778601111845733854,4.299733854,-0.03130681812763214,-0.034666575491428375,0.02779434807598591
1778601111856510312,4.310510312,-0.044440411031246185,-0.060781046748161316,0.036804601550102234
1778601111867286770,4.32128677,-0.04550942778587341,-0.05329795181751251,0.059864748269319534
1778601111878063177,4.332063177,-0.0461202897131443,-0.02977965772151947,0.08842267841100693
1778601111888839583,4.342839583,-0.04734202101826668,-0.0204639695584774,0.11331541836261749
1778601111899616041,4.353616041,-0.056657709181308746,-0.032681263983249664,0.12476912885904312
1778601111910392500,4.3643925,-0.06108647957444191,-0.0435241162776947,0.12186752259731293
1778601111921168854,4.375168854,-0.06200277432799339,-0.036651886999607086,0.10476330667734146
1778601111931945312,4.3859453120000005,-0.06108647957444191,-0.029626941308379173,0.07574722915887833
1778601111942721718,4.396721718,-0.0565049909055233,-0.012522728182375431,0.04459312930703163
1778601111953498125,4.407498125,-0.05329795181751251,0.005192350596189499,0.007024944759905338
1778601111964274583,4.4182745830000005,-0.05543597787618637,0.006108647678047419,-0.03375028073787689
1778601111975051041,4.429051041,-0.052076224237680435,0.014660755172371864,-0.06017018109560013
1778601111985827448,4.439827448,-0.041844237595796585,0.03909534588456154,-0.07941242307424545
1778601111996603854,4.450603854000001,-0.031001387163996696,0.07406735420227051,-0.0902552679181099
1778601112007380312,4.461380312,-0.019242240116000175,0.11087195575237274,-0.08918625861406326
1778601112018156770,4.472156770000001,-0.018631376326084137,0.11163553595542908,-0.0694858655333519
1778601112028933125,4.482933125000001,-0.032070402055978775,0.07422006875276566,-0.03497200831770897
1778601112039709583,4.493709583,-0.046883873641490936,0.04810560122132301,0.01802051067352295
1778601112050486041,4.504486041000001,-0.05283980444073677,0.03756818547844887,0.07101303339004517
1778601112061262395,4.515262395000001,-0.05833758786320686,0.02412915788590908,0.11667517572641373
1778601112072038854,4.526038854,-0.060322895646095276,0.028405211865901947,0.13988803327083588
1778601112082815312,4.536815312,-0.050549060106277466,0.045967575162649155,0.13255766034126282
1778601112093591562,4.547591562,-0.0383317656815052,0.036193739622831345,0.10399972647428513
1778601112104368125,4.558368125,-0.022907428443431854,0.021991131827235222,0.0591011680662632
1778601112115144531,4.569144531,-0.007788525894284248,0.025961752980947495,0.007483093533664942
1778601112125920937,4.579920937000001,0.007330377586185932,0.03023780696094036,-0.037262752652168274
1778601112136697395,4.590697395,0.01908952370285988,0.01588248461484909,-0.056199558079242706
1778601112147473854,4.601473854,0.023976443335413933,0.002443459117785096,-0.04520399495959282
1778601112158250260,4.612250260000001,0.024892739951610565,0.013897174037992954,-0.026419902220368385
1778601112169026666,4.623026666,0.029016077518463135,0.030543239787220955,-0.016187917441129684
1778601112179803073,4.633803073,0.03023780696094036,0.048563748598098755,-0.009621120058000088
1778601112190579479,4.644579479,0.028557928279042244,0.07131846249103546,-0.003512472379952669
1778601112201355937,4.655355937,0.03023780696094036,0.1055268943309784,-0.0007635809597559273
1778601112212132395,4.666132395,0.035735588520765305,0.13225223124027252,0.002443459117785096
1778601112222908802,4.676908802000001,0.034666575491428375,0.13927717506885529,0.011453714221715927
1778601112233685208,4.687685208,0.03741546720266342,0.12675444781780243,0.012370011769235134
1778601112244461614,4.698461614,0.04108065739274025,0.09376774728298187,0.007941242307424545
1778601112255238020,4.70923802,0.05528326332569122,0.05894844979047775,0.0025961752980947495
1778601112266014479,4.7200144790000005,0.07605266571044922,0.021991131827235222,0.01435532234609127
1778601112276790937,4.730790937,0.09117157012224197,-0.004123337101191282,0.021227551624178886
1778601112287567343,4.741567343000001,0.11453714966773987,0.007788525894284248,0.031154103577136993
1778601112298343750,4.7523437500000005,0.14019346237182617,0.018325943499803543,0.023823726922273636
1778601112309120156,4.763120156,0.15241076052188873,-0.0009162971982732415,-0.005650499369949102
1778601112319896562,4.773896562,0.15225805342197418,-0.017562363296747208,-0.02916879393160343
1778601112330673020,4.7846730200000005,0.14737112820148468,-0.014966187067329884,-0.047036588191986084
1778601112341449375,4.7954493750000005,0.14630211889743805,-0.016798781231045723,-0.07773254066705704
1778601112352225833,4.806225833,0.1331685185432434,-0.05711585655808449,-0.1185077652335167
1778601112363002291,4.8170022910000005,0.11087195575237274,-0.1107192412018776,-0.15668681263923645
1778601112373778698,4.827778698,0.10170898586511612,-0.1262962967157364,-0.18325942754745483
1778601112384555104,4.838555104,0.10170898586511612,-0.11636973917484283,-0.1954767256975174
1778601112395331510,4.849331510000001,0.10598503798246384,-0.07819069176912308,-0.19853104650974274
1778601112406107916,4.8601079160000005,0.11484257876873016,-0.029626941308379173,-0.20387612283229828
1778601112416884323,4.870884323,0.11575887352228165,-0.043982263654470444,-0.21212279796600342
1778601112427660729,4.881660729,0.11407899856567383,-0.07819069176912308,-0.20341797173023224
1778601112438437187,4.8924371870000005,0.1233946830034256,-0.07254019379615784,-0.1672242283821106
1778601112449213541,4.903213541,0.13683371245861053,-0.05039634555578232,-0.1366809904575348
1778601112459990000,4.91399,0.1438586562871933,-0.041844237595796585,-0.1081230640411377
1778601112470766458,4.924766458000001,0.1432477980852127,-0.0256563201546669,-0.06795870512723923
1778601112481542812,4.9355428120000004,0.13683371245861053,0.0027488914784044027,-0.021838415414094925
1778601112492319270,4.94631927,0.11209368705749512,0.013439024798572063,0.023365577682852745
1778601112503095677,4.957095677,0.06765327602624893,-0.021991131827235222,0.07742711156606674
1778601112513872083,4.9678720830000005,0.04321868345141411,-0.027336198836565018,0.13561198115348816
1778601112524648489,4.978648489,0.0386371985077858,-0.006108647678047419,0.17363831400871277
1778601112535424895,4.989424895,0.039858926087617874,0.011759147047996521,0.19730933010578156
1778601112546201302,5.000201302000001,0.03955349326133728,0.025961752980947495,0.20616686344146729
1778601112556977708,5.010977708,0.028863361105322838,0.022907428443431854,0.18585561215877533
1778601112567754114,5.021754114,0.018325943499803543,0.03634645417332649,0.1519526094198227
1778601112578530520,5.03253052,0.00946840364485979,0.05100720748305321,0.11545344442129135
1778601112589306927,5.043306927000001,-0.001679878099821508,0.039858926087617874,0.11163553595542908
1778601112600083333,5.054083333,-0.02107483521103859,-0.004123337101191282,0.12476912885904312
1778601112610859739,5.064859739,-0.04932733252644539,-0.07238747924566269,0.14233149588108063
1778601112621636145,5.075636145000001,-0.05787943676114082,-0.08643736690282822,0.17043127119541168
1778601112632412604,5.086412604,-0.0461202897131443,-0.07422006875276566,0.1792888194322586
1778601112643188958,5.097188958,-0.03756818547844887,-0.06627883017063141,0.16615521907806396
1778601112653965416,5.107965416000001,-0.025350889191031456,-0.06811141967773438,0.1484401375055313
1778601112664741770,5.118741770000001,-0.02932151034474373,-0.10231985151767731,0.12400554865598679
1778601112675518229,5.129518229,-0.04245510324835777,-0.14752385020256042,0.09621120244264603
1778601112686294583,5.140294583,-0.041844237595796585,-0.1815795600414276,0.07131846249103546
1778601112697071041,5.151071041000001,-0.034208428114652634,-0.208152174949646,0.046425722539424896
1778601112707847395,5.161847395000001,-0.01908952370285988,-0.18814635276794434,0.04169152304530144
1778601112718623854,5.172623854,-0.005803215317428112,-0.1568395346403122,0.04214967042207718
1778601112729400208,5.183400208,-0.0007635809597559273,-0.11438442766666412,0.043982263654470444
1778601112740176666,5.194176666000001,0.00946840364485979,-0.05406153202056885,0.052687086164951324
1778601112750953125,5.204953125,0.018631376326084137,-0.02779434807598591,0.06230820715427399
1778601112761729479,5.215729479,0.013133592903614044,-0.041844237595796585,0.07788526266813278
1778601112772505833,5.226505833,-0.003359756199643016,-0.0639880821108818,0.10323614627122879
1778601112783282291,5.2372822910000005,-0.005192350596189499,-0.06352993845939636,0.12873975932598114
1778601112794058750,5.24805875,-0.011759147047996521,-0.018325943499803543,0.13973531126976013
1778601112804835104,5.258835104,-0.013897174037992954,-0.0204639695584774,0.1409570425748825
1778601112815611562,5.269611562000001,-0.01802051067352295,-0.032681263983249664,0.15485422313213348
1778601112826387916,5.2803879160000005,-0.017104214057326317,-0.021227551624178886,0.19349141418933868
1778601112837164270,5.29116427,-0.01588248461484909,-0.013897174037992954,0.24602578580379486
1778601112847940729,5.301940729,-0.025961752980947495,-0.02611446939408779,0.3095557391643524
1778601112858717083,5.312717083,-0.036651886999607086,-0.0412333719432354,0.3707949221134186
1778601112869493541,5.323493541,-0.04550942778587341,-0.04306596517562866,0.43172869086265564
1778601112880269895,5.334269895,-0.036193739622831345,0.008093958720564842,0.481361448764801
1778601112891046302,5.345046302,-0.02367101050913334,0.051618073135614395,0.5169443488121033
1778601112901822708,5.355822708000001,-0.023212861269712448,0.06383536756038666,0.544891357421875
1778601112912599114,5.3665991140000004,-0.025961752980947495,0.0717766135931015,0.5441278219223022
1778601112923375520,5.37737552,-0.023212861269712448,0.07574722915887833,0.5161807537078857
1778601112934151927,5.388151927,-0.02153298258781433,0.06383536756038666,0.46425724029541016
1778601112944928333,5.398928333000001,-0.025350889191031456,0.014202605932950974,0.4166097939014435
1778601112955704739,5.409704739,-0.021685699000954628,-0.01954767294228077,0.3857611119747162
1778601112966481145,5.420481145,-0.01511890348047018,-0.045967575162649155,0.3620901107788086
1778601112977257552,5.431257552,-0.002901607658714056,-0.05787943676114082,0.3361283540725708
1778601112988033958,5.442033958000001,0.021991131827235222,-0.06383536756038666,0.3251327872276306
1778601112998810364,5.452810364,0.050090912729501724,-0.07773254066705704,0.3344484567642212
1778601113009586770,5.46358677,0.07651081681251526,-0.0798705667257309,0.3585776388645172
1778601113020363125,5.474363125,0.09193515032529831,-0.07299833744764328,0.3987419903278351
1778601113031139583,5.4851395830000005,0.09926552325487137,-0.07009673118591309,0.4526508152484894
1778601113041915937,5.495915937,0.10354158282279968,-0.054214250296354294,0.513584554195404
1778601113052692291,5.506692291,0.11026109009981155,-0.03817904740571976,0.5548179149627686
1778601113063468698,5.517468698,0.11774418503046036,-0.02718348242342472,0.582459568977356
1778601113074245104,5.528245104000001,0.1383608728647232,0.005345067009329796,0.5897899270057678
1778601113085021510,5.53902151,0.168904110789299,0.05039634555578232,0.5719221234321594
1778601113095797916,5.549797916,0.19624030590057373,0.07574722915887833,0.5474875569343567
1778601113106574323,5.560574323,0.21716243028640747,0.09193515032529831,0.5277871489524841
1778601113117350729,5.571350729000001,0.2231183648109436,0.1026252806186676,0.5009090900421143
1778601113128127135,5.582127135,0.21777328848838806,0.08582650125026703,0.4615083336830139
1778601113138903541,5.592903541,0.210442915558815,0.04978547990322113,0.43020153045654297
1778601113149679895,5.603679895,0.20433427393436432,0.018784092739224434,0.41416633129119873
1778601113160456250,5.61445625,0.20357069373130798,0.017867794260382652,0.4105011224746704
1778601113171232656,5.6252326560000006,0.20402882993221283,0.036193739622831345,0.41706791520118713
1778601113182009062,5.636009062,0.19822561740875244,0.060781046748161316,0.42653632164001465
1778601113192785468,5.646785468,0.1925751268863678,0.0717766135931015,0.42073312401771545
1778601113203561875,5.657561875000001,0.18127411603927612,0.05742128938436508,0.4094321131706238
1778601113214338281,5.6683382810000005,0.1585194170475006,0.03390299528837204,0.3909534513950348
1778601113225114687,5.679114687,0.13469567894935608,0.024892739951610565,0.364991694688797
1778601113235891041,5.689891041,0.1127045527100563,0.0204639695584774,0.34208428859710693
1778601113246667395,5.700667395,0.09071341902017593,0.013439024798572063,0.3303251266479492
1778601113257443854,5.7114438540000005,0.0769689604640007,0.012522728182375431,0.3341430425643921
1778601113268220208,5.722220208,0.06719512492418289,0.016646064817905426,0.34636032581329346
1778601113278996614,5.732996614,0.059864748269319534,0.030543239787220955,0.3601047992706299
1778601113289773020,5.743773020000001,0.06352993845939636,0.05085449293255806,0.3811796307563782
1778601113300549427,5.754549427000001,0.07849612087011337,0.07910698652267456,0.40805765986442566
1778601113311325833,5.765325833,0.08307760953903198,0.09010255336761475,0.4196641147136688
1778601113322102187,5.776102187,0.08261945843696594,0.08918625861406326,0.4150826036930084
1778601113332878541,5.786878541,0.07941242307424545,0.08521563559770584,0.38698282837867737
1778601113343655000,5.797655000000001,0.07483093440532684,0.06322450190782547,0.32681265473365784
1778601113354431354,5.8084313540000005,0.0691804364323616,0.026419902220368385,0.24892739951610565
1778601113365207760,5.81920776,0.06566796451807022,-0.0204639695584774,0.17684535682201385
1778601113375984166,5.829984166,0.06887500733137131,-0.0691804364323616,0.1230892539024353
1778601113386760573,5.840760573000001,0.07910698652267456,-0.10842850059270859,0.1026252806186676
1778601113397536979,5.8515369790000005,0.08338304609060287,-0.1156061589717865,0.1182023361325264
1778601113408313333,5.862313333,0.09162971377372742,-0.0899498388171196,0.15561780333518982
1778601113419089687,5.873089687,0.10583232343196869,-0.04932733252644539,0.1951712965965271
1778601113429866093,5.883866093,0.1156061589717865,-0.03375028073787689,0.22174391150474548
1778601113440642500,5.894642500000001,0.1156061589717865,-0.028099779039621353,0.22174391150474548
1778601113451418906,5.905418906,0.11682789027690887,-0.014660755172371864,0.2107483446598053
1778601113462195312,5.916195312,0.10949750989675522,-0.004123337101191282,0.19349141418933868
1778601113472971666,5.926971666,0.09850194305181503,-0.01511890348047018,0.16997312009334564
1778601113483748020,5.937748020000001,0.08552107214927673,-0.028863361105322838,0.145843967795372
1778601113494524427,5.948524427000001,0.0720820426940918,-0.03298669680953026,0.1262962967157364
1778601113505300833,5.959300833,0.056657709181308746,-0.03543015569448471,0.09621120244264603
1778601113516077239,5.970077239,0.04230238497257233,-0.036193739622831345,0.06200277432799339
1778601113526853645,5.980853645000001,0.03390299528837204,-0.049632761627435684,0.03191768378019333
1778601113537630000,5.991630000000001,0.030543239787220955,-0.07406735420227051,0.01282816007733345
1778601113548406354,6.0024063540000006,0.02932151034474373,-0.0818558782339096,0.004276053514331579
1778601113559182760,6.01318276,0.03298669680953026,-0.07452550530433655,0.01282816007733345
1778601113569959166,6.023959166,0.022907428443431854,-0.07941242307424545,0.032681263983249664
1778601113580735573,6.034735573000001,0.006872228812426329,-0.09193515032529831,0.05833758786320686
1778601113591511979,6.0455119790000005,-0.00946840364485979,-0.10170898586511612,0.09712749719619751
1778601113602288385,6.056288385,-0.028863361105322838,-0.09117157012224197,0.13240493834018707
1778601113613064791,6.067064791,-0.04566214233636856,-0.05696314200758934,0.1565341055393219
1778601113623841145,6.077841145000001,-0.05864302068948746,-0.02932151034474373,0.16539163887500763
1778601113634617500,6.088617500000001,-0.06994401663541794,-0.03145953640341759,0.1487455666065216
1778601113645393906,6.099393906,-0.0769689604640007,-0.0642935186624527,0.1233946830034256
1778601113656170312,6.110170312,-0.08277218043804169,-0.09728021919727325,0.09376774728298187
1778601113666946718,6.120946718000001,-0.08139773458242416,-0.12583814561367035,0.07254019379615784
1778601113677723125,6.131723125000001,-0.08017600327730179,-0.14508038759231567,0.06963858753442764
1778601113688499479,6.1424994790000005,-0.0772743970155716,-0.13362666964530945,0.07299833744764328
1778601113699275833,6.153275833,-0.06841685622930527,-0.0870482325553894,0.07910698652267456
1778601113710052239,6.164052239,-0.049632761627435684,-0.017104214057326317,0.0720820426940918
1778601113720828645,6.174828645000001,-0.04001164436340332,0.012675444595515728,0.036651886999607086
1778601113731605052,6.1856050520000005,-0.050549060106277466,-0.025961752980947495,0.007024944759905338
1778601113742381458,6.196381458,-0.07376192510128021,-0.07849612087011337,0.001832594396546483
1778601113753157812,6.207157812,-0.08918625861406326,-0.0798705667257309,0.0204639695584774
1778601113763934166,6.217934166,-0.08750637620687485,-0.0383317656815052,0.0334448479115963
1778601113774710573,6.228710573000001,-0.06108647957444191,0.025350889191031456,0.034208428114652634
1778601113785486979,6.2394869790000005,-0.029626941308379173,0.07895427197217941,0.023212861269712448
1778601113796263385,6.250263385,-0.010995565913617611,0.11209368705749512,0.024892739951610565
1778601113807039791,6.261039791,-0.0021380267571657896,0.14981459081172943,0.03955349326133728
1778601113817816145,6.271816145000001,0.00045814859913662076,0.19104796648025513,0.05803215503692627
1778601113828592500,6.282592500000001,-0.009315688163042068,0.2153298407793045,0.0746782198548317
1778601113839368906,6.293368906,-0.029016077518463135,0.21181736886501312,0.08811724185943604
1778601113850145312,6.304145312,-0.04673115536570549,0.19013166427612305,0.09865466505289078
1778601113860921718,6.314921718000001,-0.06307178735733032,0.1640172004699707,0.09712749719619751
1778601113871698125,6.325698125000001,-0.07910698652267456,0.1331685185432434,0.08155044913291931
1778601113882474479,6.3364744790000005,-0.0818558782339096,0.09941824525594711,0.056810423731803894
1778601113893250833,6.347250833,-0.07238747924566269,0.07284562289714813,0.0256563201546669
1778601113904027239,6.358027239,-0.06520981341600418,0.03130681812763214,0.002443459117785096
1778601113914803645,6.368803645000001,-0.0642935186624527,0.0027488914784044027,-0.007941242307424545
1778601113925580052,6.379580052000001,-0.06108647957444191,-0.017562363296747208,-0.014508038759231567
1778601113936356458,6.390356458,-0.06444623321294785,-0.04245510324835777,-0.011606430634856224
1778601113947132760,6.40113276,-0.06505709886550903,-0.0461202897131443,0.01282816007733345
1778601113957909166,6.411909166,-0.06444623321294785,-0.0334448479115963,0.04214967042207718
1778601113968685573,6.422685573000001,-0.06444623321294785,-0.007330377586185932,0.07269290834665298
1778601113979461979,6.4334619790000005,-0.05864302068948746,0.026419902220368385,0.10445787757635117
1778601113990238333,6.444238333,-0.047952886670827866,0.06017018109560013,0.1230892539024353
1778601114001014687,6.455014687,-0.03023780696094036,0.08628465235233307,0.11972949653863907
1778601114011791093,6.465791093,-0.0032070400193333626,0.10629047453403473,0.09957095980644226
1778601114022567500,6.476567500000001,0.02764163166284561,0.11804962158203125,0.0818558782339096
1778601114033343854,6.487343854000001,0.05940660089254379,0.13561198115348816,0.07009673118591309
1778601114044120208,6.4981202080000005,0.08628465235233307,0.14172062277793884,0.060322895646095276
1778601114054896614,6.508896614,0.09453132748603821,0.11942406743764877,0.05253437161445618
1778601114065673020,6.519673020000001,0.09162971377372742,0.0850629210472107,0.05589412897825241
1778601114076449427,6.530449427000001,0.08261945843696594,0.053756099194288254,0.06490438431501389
1778601114087225833,6.541225833,0.07651081681251526,0.05222893878817558,0.07101303339004517
1778601114098002187,6.552002187,0.07162389904260635,0.05329795181751251,0.06902772188186646
1778601114108778541,6.562778541,0.06444623321294785,0.04108065739274025,0.05711585655808449
1778601114119554948,6.573554948000001,0.056657709181308746,0.02932151034474373,0.04886918142437935
1778601114130331354,6.584331354000001,0.05100720748305321,0.04306596517562866,0.053756099194288254
1778601114141107708,6.5951077080000005,0.05543597787618637,0.07086031138896942,0.04886918142437935
1778601114151884062,6.605884062,0.057726722210645676,0.08720094710588455,0.04001164436340332
1778601114162660468,6.616660468,0.05955931544303894,0.10797034949064255,0.017715077847242355
1778601114173436875,6.627436875000001,0.06673697382211685,0.13439024984836578,-0.016187917441129684
1778601114184213229,6.638213229000001,0.06520981341600418,0.14569124579429626,-0.04673115536570549
1778601114194989583,6.6489895830000005,0.052076224237680435,0.1438586562871933,-0.07070759683847427
1778601114205765989,6.659765989,0.03176496922969818,0.15546508133411407,-0.09285144507884979
1778601114216542395,6.670542395,0.014660755172371864,0.16050471365451813,-0.11194097250699997
1778601114227318750,6.68131875,0.0021380267571657896,0.16523891687393188,-0.11682789027690887
1778601114238095104,6.692095104000001,-0.001679878099821508,0.15806126594543457,-0.12125665694475174
1778601114248871510,6.7028715100000005,0.001679878099821508,0.13652828335762024,-0.1314886510372162
1778601114259647916,6.713647916,0.012980876490473747,0.12996147572994232,-0.143553227186203
1778601114270424270,6.72442427,0.020311253145337105,0.11881320178508759,-0.15546508133411407
1778601114281200625,6.735200625,0.027336198836565018,0.10506874322891235,-0.16646064817905426
1778601114291977031,6.745977031000001,0.04245510324835777,0.10842850059270859,-0.17165300250053406
1778601114302753437,6.756753437,0.05696314200758934,0.10094540566205978,-0.16844595968723297
1778601114313529739,6.767529739,0.06627883017063141,0.09040798991918564,-0.15271618962287903
1778601114324306145,6.778306145,0.06719512492418289,0.09330959618091583,-0.11682789027690887
1778601114335082552,6.789082552,0.06108647957444191,0.10094540566205978,-0.0792597085237503
1778601114345858958,6.799858958000001,0.054214250296354294,0.10094540566205978,-0.047036588191986084
1778601114356635260,6.810635260000001,0.046883873641490936,0.08643736690282822,-0.01893680728971958
1778601114367411666,6.821411666,0.0383317656815052,0.07116574794054031,-0.001221729558892548
1778601114378188073,6.832188073,0.03390299528837204,0.06307178735733032,0.020769402384757996
1778601114388964375,6.842964375,0.029016077518463135,0.046425722539424896,0.03634645417332649
1778601114399740781,6.853740781000001,0.02107483521103859,0.022754713892936707,0.04520399495959282
1778601114410517187,6.864517187000001,0.01740964688360691,0.007024944759905338,0.04001164436340332
1778601114421293541,6.8752935410000005,0.014660755172371864,-0.02107483521103859,0.025045456364750862
1778601114432069895,6.886069895,0.011453714221715927,-0.05253437161445618,0.021380268037319183
1778601114442846302,6.896846302,0.014202605932950974,-0.07605266571044922,0.03298669680953026
1778601114453622708,6.907622708000001,0.020769402384757996,-0.0772743970155716,0.07819069176912308
1778601114464399062,6.918399062000001,0.018784092739224434,-0.06322450190782547,0.15439607203006744
1778601114475175416,6.9291754160000005,0.011453714221715927,-0.04276053607463837,0.22815799713134766
1778601114485951823,6.939951823,0.007330377586185932,-0.03817904740571976,0.27580544352531433
1778601114496728125,6.950728125,0.006872228812426329,-0.05543597787618637,0.3019199073314667
1778601114507504531,6.961504531,0.013439024798572063,-0.059864748269319534,0.31490078568458557
1778601114518280937,6.972280937000001,0.02000582218170166,-0.06887500733137131,0.31093016266822815
1778601114529057291,6.983057291000001,0.0154243353754282,-0.09437860548496246,0.30543237924575806
1778601114539833645,6.9938336450000005,0.00946840364485979,-0.10903936624526978,0.2926042377948761
1778601114550610052,7.004610052,0.016646064817905426,-0.10629047453403473,0.2721402645111084
1778601114561386458,7.015386458,0.03329212963581085,-0.0977383628487587,0.25900667905807495
1778601114572162760,7.02616276,0.05039634555578232,-0.0925460159778595,0.24006985127925873
1778601114582939166,7.036939166000001,0.07284562289714813,-0.0717766135931015,0.22174391150474548
1778601114593715520,7.047715520000001,0.0850629210472107,-0.06520981341600418,0.21991132199764252
1778601114604491875,7.0584918750000005,0.0668896958231926,-0.10018182545900345,0.249690979719162
1778601114615268281,7.069268281,0.0334448479115963,-0.11087195575237274,0.30222535133361816
1778601114626044687,7.080044687,0.0154243353754282,-0.07941242307424545,0.3481929302215576
1778601114636820989,7.090820989,0.0032070400193333626,-0.05818486958742142,0.37919431924819946
1778601114647597395,7.101597395000001,-0.010690134018659592,-0.05955931544303894,0.3926333487033844
1778601114658373750,7.112373750000001,-0.018784092739224434,-0.061391908675432205,0.4082103967666626
1778601114669150104,7.1231501040000005,-0.008857538923621178,-0.036193739622831345,0.43371400237083435
1778601114679926510,7.13392651,0.012522728182375431,-0.02977965772151947,0.4378373324871063
1778601114690702916,7.144702916000001,0.04978547990322113,-0.03329212963581085,0.41416633129119873
1778601114701479218,7.155479218000001,0.0925460159778595,-0.03817904740571976,0.38011062145233154
1778601114712255625,7.166255625000001,0.12614357471466064,-0.04520399495959282,0.34498587250709534
1778601114723031979,7.177031979000001,0.1441640853881836,-0.0591011680662632,0.33490660786628723
1778601114733808333,7.187808333,0.15317434072494507,-0.061850059777498245,0.3494146466255188
1778601114744584739,7.198584739,0.1637117564678192,-0.038789913058280945,0.38728827238082886
1778601114755361041,7.209361041,0.1715002804994583,-0.010995565913617611,0.4195113778114319
1778601114766137448,7.220137448,0.17913609743118286,0.003359756199643016,0.4416552484035492
1778601114776913854,7.230913854000001,0.18493930995464325,0.011300998739898205,0.46838057041168213
1778601114787690156,7.241690156000001,0.18295399844646454,0.01908952370285988,0.49250972270965576
1778601114798466562,7.252466562,0.1847866028547287,0.021227551624178886,0.509155809879303
1778601114809242916,7.263242916,0.19379685819149017,0.013744457624852657,0.5180133581161499
1778601114820019270,7.27401927,0.210442915558815,0.03390299528837204,0.5377137064933777
1778601114830795677,7.284795677000001,0.22937972843647003,0.05940660089254379,0.558788537979126
1778601114841571979,7.295571979000001,0.23777911067008972,0.05451968312263489,0.578336238861084
1778601114852348385,7.306348385000001,0.24342961609363556,0.045967575162649155,0.5910117030143738
1778601114863124791,7.317124791,0.24831652641296387,0.031001387163996696,0.5991056561470032
1778601114873901093,7.327901093,0.25213444232940674,0.011453714221715927,0.6078104376792908
1778601114884677500,7.3386775,0.2556469142436981,0.0007635809597559273,0.6212494969367981
1778601114895453854,7.349453854,0.26022839546203613,0.013897174037992954,0.6488910913467407
1778601114906230208,7.360230208000001,0.27290382981300354,0.05955931544303894,0.6798924803733826
1778601114917006562,7.371006562000001,0.2788597643375397,0.11117739230394363,0.7092140316963196
1778601114927782916,7.381782916000001,0.2764163017272949,0.14248420298099518,0.7376192212104797
1778601114938559323,7.392559323,0.26908594369888306,0.1383608728647232,0.7429642677307129
1778601114949335625,7.403335625,0.26419901847839355,0.12996147572994232,0.7324268817901611
1778601114960112031,7.414112031,0.2631300091743469,0.14019346237182617,0.720820426940918
1778601114970888437,7.424888437000001,0.2623664140701294,0.162031888961792,0.7226530313491821
1778601114981664739,7.435664739000001,0.25534147024154663,0.18402300775051117,0.7422007322311401
1778601114992441145,7.4464411450000005,0.24801109731197357,0.19700388610363007,0.7771727442741394
1778601115003217448,7.457217448000001,0.2386954128742218,0.19471314549446106,0.8173370957374573
1778601115013993854,7.467993854,0.22846342623233795,0.18906265497207642,0.8553634285926819
1778601115024770208,7.478770208,0.2257145345211029,0.19013166427612305,0.8871283531188965
1778601115035546562,7.489546562,0.21960589289665222,0.16646064817905426,0.9118683934211731
1778601115046322916,7.500322916000001,0.2023489624261856,0.1153007298707962,0.9237802624702454
1778601115057099270,7.511099270000001,0.19761475920677185,0.10827577859163284,0.9338595271110535
1778601115067875677,7.521875677000001,0.21166464686393738,0.1230892539024353,0.9334014058113098
1778601115078651979,7.532651979000001,0.2306014597415924,0.1156061589717865,0.9250019788742065
1778601115089428385,7.543428385,0.25320345163345337,0.10674861818552017,0.9152281284332275
1778601115100204687,7.554204687,0.26358816027641296,0.05955931544303894,0.915686309337616
1778601115110981093,7.564981093,0.27168211340904236,0.01954767294228077,0.929888904094696
1778601115121757395,7.575757395,0.2802342176437378,0.0009162971982732415,0.9502001404762268
1778601115132533802,7.586533802000001,0.29153522849082947,-0.00045814859913662076,0.9645555019378662
1778601115143310208,7.597310208000001,0.31184646487236023,0.01511890348047018,0.9694424271583557
1778601115154086510,7.608086510000001,0.324063777923584,0.028863361105322838,0.9615011811256409
1778601115164862916,7.618862916,0.31932955980300903,0.04108065739274025,0.9482148289680481
1778601115175639218,7.629639218,0.3017672002315521,0.050549060106277466,0.9440914988517761
1778601115186415625,7.640415625,0.28557929396629333,0.04673115536570549,0.9413426518440247
1778601115197191927,7.651191927,0.2788597643375397,0.03252854943275452,0.9448550939559937
1778601115207968333,7.661968333000001,0.2822195291519165,0.029626941308379173,0.9553925395011902
1778601115218744635,7.672744635000001,0.2948949635028839,0.04230238497257233,0.9636391997337341
1778601115229521041,7.6835210410000006,0.31490078568458557,0.05299251899123192,0.9685261249542236
1778601115240297343,7.694297343000001,0.3318522870540619,0.04673115536570549,0.9648609161376953
1778601115251073750,7.70507375,0.33719736337661743,0.03634645417332649,0.9579886794090271
1778601115261850052,7.715850052,0.3445277214050293,0.04841103404760361,0.9456186890602112
1778601115272626354,7.726626354,0.35094180703163147,0.04230238497257233,0.9272927641868591
1778601115283402760,7.73740276,0.3430005609989166,0.006872228812426329,0.907439649105072
1778601115294179166,7.748179166000001,0.32589635252952576,-0.0102319847792387,0.8979712128639221
1778601115304955520,7.758955520000001,0.3075704276561737,-0.011453714221715927,0.901789128780365
1778601115315731875,7.769731875000001,0.29275694489479065,-0.014966187067329884,0.897665798664093
1778601115326508177,7.780508177000001,0.28496840596199036,-0.0009162971982732415,0.8862120509147644
1778601115337284583,7.791284583,0.281914085149765,0.004886918235570192,0.8720094561576843
1778601115348060937,7.802060937,0.2838993966579437,-0.0009162971982732415,0.860708475112915
1778601115358837291,7.812837291,0.281914085149765,-0.004428769461810589,0.8561269640922546
1778601115369613593,7.823613593,0.27488914132118225,-0.012980876490473747,0.8659008145332336
1778601115380390000,7.834390000000001,0.26389357447624207,-0.006108647678047419,0.8857539296150208
1778601115391166302,7.845166302000001,0.2516762912273407,0.0007635809597559273,0.9037744402885437
1778601115401942708,7.855942708000001,0.24465134739875793,0.007024944759905338,0.9106466770172119
1778601115412719010,7.866719010000001,0.2415970265865326,0.013897174037992954,0.9062178730964661
1778601115423495416,7.877495416,0.23793183267116547,0.022754713892936707,0.8996511101722717
1778601115434271718,7.888271718,0.23457208275794983,0.03298669680953026,0.8849903345108032
1778601115445048125,7.899048125,0.22357651591300964,0.028557928279042244,0.8663589954376221
1778601115455824427,7.909824427,0.20738859474658966,0.010995565913617611,0.8520036339759827
1778601115466600833,7.920600833000001,0.19639302790164948,-0.002443459117785096,0.8446732759475708
1778601115477377135,7.931377135000001,0.19349141418933868,0.0027488914784044027,0.8442151546478271
1778601115488153541,7.942153541000001,0.19700388610363007,0.009315688163042068,0.8316923975944519
1778601115498929843,7.952929843000001,0.20127993822097778,-0.004123337101191282,0.8138245940208435
1778601115509706145,7.963706145000001,0.22449280321598053,0.009773836471140385,0.7958040833473206
1778601115520482552,7.9744825520000004,0.2390008419752121,0.004886918235570192,0.7786998748779297
1778601115531258854,7.9852588540000005,0.24999640882015228,0.004428769461810589,0.7757982611656189
1778601115542035260,7.99603526,0.2562577724456787,0.005192350596189499,0.7881683111190796
1778601115552811562,8.006811562000001,0.2519817352294922,-0.000305432389723137,0.7954986691474915
1778601115563587968,8.017587968,0.24801109731197357,-0.004886918235570192,0.7893900275230408
1778601115574364270,8.02836427,0.249690979719162,-0.020769402384757996,0.7641918659210205
1778601115585140573,8.039140573000001,0.25381430983543396,-0.0383317656815052,0.748920202255249
1778601115595916979,8.049916979,0.2565632164478302,-0.043982263654470444,0.7615956664085388
1778601115606693281,8.060693281,0.2556469142436981,-0.035735588520765305,0.7977893948554993
1778601115617469687,8.071469687,0.25900667905807495,-0.02718348242342472,0.8378010392189026
1778601115628245989,8.082245989,0.2663370370864868,-0.02412915788590908,0.8639155030250549
1778601115639022395,8.093022395,0.2712239623069763,-0.04062250629067421,0.8683443069458008
1778601115649798698,8.103798698,0.27000224590301514,-0.04764745384454727,0.8614720702171326
1778601115660575104,8.114575104,0.2655734717845917,-0.036651886999607086,0.8468112945556641
1778601115671351406,8.125351406,0.25320345163345337,-0.04428769648075104,0.8287907838821411
1778601115682127708,8.136127708,0.22876885533332825,-0.05955931544303894,0.8126028776168823
1778601115692904062,8.146904062,0.20402882993221283,-0.07422006875276566,0.7990111112594604
1778601115703680416,8.157680416,0.18234314024448395,-0.08109229803085327,0.7872520089149475
1778601115714456823,8.168456823,0.162031888961792,-0.08017600327730179,0.7762564420700073
1778601115725233125,8.179233125,0.14080433547496796,-0.07864884287118912,0.7703005075454712
1778601115736009479,8.190009479,0.1262962967157364,-0.05589412897825241,0.7654135823249817
1778601115746785833,8.200785833000001,0.1262962967157364,-0.013133592903614044,0.7519745230674744
1778601115757562187,8.211562187,0.1331685185432434,0.022907428443431854,0.7363975048065186
1778601115768338541,8.222338541000001,0.141262486577034,0.06307178735733032,0.7318159937858582
1778601115779114843,8.233114843000001,0.1542433500289917,0.08826996386051178,0.7339540123939514
1778601115789891145,8.243891145000001,0.15241076052188873,0.08109229803085327,0.7583886384963989
1778601115800667552,8.254667552,0.1536324918270111,0.07605266571044922,0.7938187718391418
1778601115811443958,8.265443958,0.17226386070251465,0.05955931544303894,0.8246674537658691
1778601115822220260,8.27622026,0.20922118425369263,0.03634645417332649,0.8541416525840759
1778601115832996562,8.286996562,0.25243985652923584,0.010079269297420979,0.8851430416107178
1778601115843772968,8.297772968,0.29474225640296936,-0.014660755172371864,0.9140064120292664
1778601115854549270,8.30854927,0.33429574966430664,-0.040317077189683914,0.9350812435150146
1778601115865325677,8.319325677,0.3588830530643463,-0.09193515032529831,0.9363030195236206
1778601115876101979,8.330101979,0.3689623177051544,-0.1253799945116043,0.9250019788742065
1778601115886878385,8.340878385,0.37552911043167114,-0.14141519367694855,0.907439649105072
1778601115897654687,8.351654687,0.3730856776237488,-0.1380554437637329,0.8854485154151917
1778601115908431041,8.362431041,0.3643808364868164,-0.13439024984836578,0.8483384847640991
1778601115919207395,8.373207395,0.3454440236091614,-0.13683371245861053,0.8043562173843384
1778601115929983750,8.38398375,0.3107774555683136,-0.14019346237182617,0.7751874327659607
1778601115940760104,8.394760104000001,0.28496840596199036,-0.129197895526886,0.7706059217453003
1778601115951536406,8.405536406000001,0.26419901847839355,-0.12171480804681778,0.7843503952026367
1778601115962312812,8.416312812000001,0.2545779049396515,-0.10048725455999374,0.8100066781044006
1778601115973089114,8.427089114000001,0.26389357447624207,-0.04718930274248123,0.8300125002861023
1778601115983865520,8.43786552,0.2802342176437378,-0.026878049597144127,0.8558215498924255
1778601115994641823,8.448641823,0.2929096519947052,-0.028099779039621353,0.8674280047416687
1778601116005418229,8.459418229,0.2997818887233734,-0.04566214233636856,0.8639155030250549
1778601116016194531,8.470194531,0.29901832342147827,-0.0591011680662632,0.8552106618881226
1778601116026970833,8.480970833,0.2831358313560486,-0.07162389904260635,0.8600975871086121
1778601116037747239,8.491747239,0.2606865465641022,-0.07162389904260635,0.8692606091499329
1778601116048523541,8.502523541,0.23487751185894012,-0.07086031138896942,0.8675807118415833
1778601116059299948,8.513299948,0.2110537886619568,-0.06062832847237587,0.8698714375495911
1778601116070076250,8.52407625,0.19333870708942413,-0.021991131827235222,0.8874338269233704
1778601116080852604,8.534852604000001,0.1798996776342392,0.046425722539424896,0.9205732345581055
1778601116091628958,8.545628958,0.1669187992811203,0.10338886082172394,0.9511164426803589
1778601116102405312,8.556405312,0.17195843160152435,0.16646064817905426,0.9639446139335632
1778601116113181666,8.567181666,0.19333870708942413,0.21410810947418213,0.9680679440498352
1778601116123957968,8.577957968,0.20570871233940125,0.21716243028640747,0.9657772183418274
1778601116134734375,8.588734375000001,0.210442915558815,0.19104796648025513,0.9665408134460449
1778601116145510677,8.599510677000001,0.22449280321598053,0.16081015765666962,0.9738711714744568
1778601116156287083,8.610287083000001,0.23777911067008972,0.13164135813713074,0.9804379940032959
1778601116167063385,8.621063385000001,0.24480405449867249,0.09315688163042068,0.9856303334236145
1778601116177839791,8.631839791,0.24236060678958893,0.048563748598098755,1.000291109085083
1778601116188616093,8.642616093,0.2390008419752121,0.017562363296747208,1.0225876569747925
1778601116199392395,8.653392395000001,0.2507599890232086,0.028557928279042244,1.038164734840393
1778601116210168750,8.66416875,0.2724456787109375,0.044898562133312225,1.0474803447723389
1778601116220945104,8.674945104,0.28557929396629333,0.04199695214629173,1.0519092082977295
1778601116231721510,8.68572151,0.28557929396629333,0.038789913058280945,1.064737319946289
1778601116242497812,8.696497812,0.2782489061355591,0.04520399495959282,1.0679444074630737
1778601116253274218,8.707274218,0.2770271897315979,0.056199558079242706,1.0598503351211548
1778601116264050520,8.71805052,0.28466299176216125,0.07483093440532684,1.0467168092727661
1778601116274826875,8.728826875000001,0.2981020212173462,0.06627883017063141,1.041066288948059
1778601116285603229,8.739603229,0.29962918162345886,0.05299251899123192,1.0528254508972168
1778601116296379531,8.750379531,0.3046688139438629,0.07528908550739288,1.0848958492279053
1778601116307155937,8.761155937,0.3066541254520416,0.09285144507884979,1.117882490158081
1778601116317932239,8.771932239,0.3075704276561737,0.08674279600381851,1.141248106956482
1778601116328708645,8.782708645000001,0.3130682110786438,0.08093958348035812,1.1520910263061523
1778601116339484948,8.793484948,0.3185659945011139,0.0717766135931015,1.1530072689056396
1778601116350261250,8.80426125,0.32940882444381714,0.07895427197217941,1.1429280042648315
1778601116361037656,8.815037656000001,0.3430005609989166,0.08796452730894089,1.1339176893234253
1778601116371813958,8.825813958000001,0.3546070158481598,0.07788526266813278,1.124449372291565
1778601116382590364,8.836590364000001,0.35964664816856384,0.07406735420227051,1.1184934377670288
1778601116393366666,8.847366666000001,0.3601047992706299,0.07483093440532684,1.1114684343338013
1778601116404143020,8.85814302,0.35506516695022583,0.06200277432799339,1.100778341293335
1778601116414919375,8.868919375,0.3442223072052002,0.043982263654470444,1.092226266860962
1778601116425695677,8.879695677,0.3217730224132538,0.022754713892936707,1.0960441827774048
1778601116436472083,8.890472083,0.29901832342147827,0.01802051067352295,1.1065815687179565
1778601116447248385,8.901248385,0.27458372712135315,0.020311253145337105,1.1252129077911377
1778601116458024791,8.912024791,0.250149130821228,0.023976443335413933,1.1488839387893677
1778601116468801093,8.922801093,0.23457208275794983,0.0308486707508564,1.161101222038269
1778601116479577395,8.933577395,0.2292270064353943,0.024892739951610565,1.155450701713562
1778601116490353802,8.944353802,0.23136503994464874,0.023976443335413933,1.142775297164917
1778601116501130104,8.955130104,0.23854269087314606,0.02000582218170166,1.124449372291565
1778601116511906510,8.96590651,0.24801109731197357,0.015577051788568497,1.1016945838928223
1778601116522682812,8.976682812,0.2606865465641022,0.021227551624178886,1.0850485563278198
1778601116533459166,8.987459166,0.2707658112049103,0.031001387163996696,1.0793980360031128
1778601116544235520,8.99823552,0.2733619809150696,0.03497200831770897,1.080161690711975
1778601116555011875,9.009011875,0.27000224590301514,0.03375028073787689,1.0891718864440918
1778601116565788229,9.019788229000001,0.2623664140701294,0.0334448479115963,1.0960441827774048
1778601116576564531,9.030564531000001,0.26419901847839355,0.05085449293255806,1.0997092723846436
1778601116587340937,9.041340937000001,0.272751122713089,0.06444623321294785,1.0848958492279053
1778601116598117239,9.052117239000001,0.2837466895580292,0.06322450190782547,1.0618356466293335
1778601116608893645,9.062893645,0.2929096519947052,0.05528326332569122,1.0409135818481445
1778601116619669948,9.073669948000001,0.29764387011528015,0.04321868345141411,1.0299180746078491
1778601116630446354,9.084446354,0.3058905303478241,0.04734202101826668,1.0315978527069092
1778601116641222656,9.095222656,0.31551164388656616,0.045967575162649155,1.0487021207809448
1778601116651999062,9.105999062,0.31932955980300903,0.029626941308379173,1.0751219987869263
1778601116662775364,9.116775364,0.31719154119491577,0.03176496922969818,1.1070396900177002
1778601116673551666,9.127551666,0.314289927482605,0.044898562133312225,1.1337649822235107
1778601116684328073,9.138328073,0.3075704276561737,0.04566214233636856,1.1542290449142456
1778601116695104375,9.149104375,0.291229784488678,0.04001164436340332,1.1676679849624634
1778601116705880781,9.159880781,0.2788597643375397,0.049632761627435684,1.1843141317367554
1778601116716657083,9.170657083,0.263435423374176,0.05833758786320686,1.2003493309020996
1778601116727433489,9.181433489,0.24999640882015228,0.04810560122132301,1.211344838142395
1778601116738209791,9.192209791,0.24022257328033447,0.03222311660647392,1.2186752557754517
1778601116748986198,9.202986198000001,0.23747368156909943,0.02932151034474373,1.2243257761001587
1778601116759762500,9.213762500000001,0.2458730787038803,0.0334448479115963,1.2290599346160889
1778601116770538906,9.224538906000001,0.2658788859844208,0.04886918142437935,1.2292126417160034
1778601116781315208,9.235315208000001,0.2861901521682739,0.050090912729501724,1.2180644273757935
1778601116792091614,9.246091614000001,0.29153522849082947,0.02611446939408779,1.2026400566101074
1778601116802867916,9.256867916000001,0.29856017231941223,0.022296564653515816,1.2003493309020996
1778601116813644270,9.26764427,0.3130682110786438,0.04062250629067421,1.2035562992095947
1778601116824420625,9.278420625,0.3225366175174713,0.04001164436340332,1.2124139070510864
1778601116835197031,9.289197031,0.3196350038051605,0.028863361105322838,1.2238675355911255
1778601116845973333,9.299973333,0.31810784339904785,0.04810560122132301,1.2331832647323608
1778601116856749687,9.310749687000001,0.31123560667037964,0.04428769648075104,1.2214241027832031
1778601116867526041,9.321526041,0.3098611533641815,0.044440411031246185,1.1936297416687012
1778601116878302395,9.332302395000001,0.31520622968673706,0.06200277432799339,1.161101222038269
1778601116889078750,9.34307875,0.33322674036026,0.09040798991918564,1.1233803033828735
1778601116899855104,9.353855104,0.3510945439338684,0.10720676928758621,1.0804671049118042
1778601116910631458,9.364631458,0.3607156574726105,0.08842267841100693,1.0421353578567505
1778601116921407812,9.375407812,0.3759872615337372,0.08796452730894089,1.021518588066101
1778601116932184166,9.386184166000001,0.38850998878479004,0.09162971377372742,1.0247256755828857
1778601116942960520,9.39696052,0.39186975359916687,0.08231402933597565,1.036942958831787
1778601116953736875,9.407736875000001,0.38438665866851807,0.061850059777498245,1.056185245513916
1778601116964513229,9.418513229,0.3681987524032593,0.0383317656815052,1.0830632448196411
1778601116975289583,9.429289583000001,0.35216355323791504,0.014202605932950974,1.1045962572097778
1778601116986065937,9.440065937,0.33597561717033386,-0.013439024798572063,1.1221586465835571
1778601116996842291,9.450842291,0.3283398151397705,-0.021685699000954628,1.142775297164917
1778601117007618645,9.461618645,0.31673339009284973,-0.035124726593494415,1.1549925804138184
1778601117018395000,9.472395,0.3000873327255249,-0.05955931544303894,1.1508692502975464
1778601117029171354,9.483171354000001,0.291687935590744,-0.07864884287118912,1.1310161352157593
1778601117039947708,9.493947708,0.29856017231941223,-0.08826996386051178,1.0928370952606201
1778601117050724062,9.504724062000001,0.3107774555683136,-0.10537417232990265,1.05496346950531
1778601117061500416,9.515500416,0.32009315490722656,-0.12217295914888382,1.0372483730316162
1778601117072276770,9.52627677,0.32589635252952576,-0.11484257876873016,1.0396918058395386
1778601117083053125,9.537053125,0.33078327775001526,-0.09728021919727325,1.0535889863967896
1778601117093829479,9.547829479,0.34238970279693604,-0.08109229803085327,1.0633628368377686
1778601117104605729,9.558605729,0.3510945439338684,-0.07055488228797913,1.0667226314544678
1778601117115382187,9.569382187,0.35674503445625305,-0.06597339361906052,1.0679444074630737
1778601117126158541,9.580158541000001,0.3497200906276703,-0.0766635313630104,1.0809252262115479
1778601117136934895,9.590934895,0.33200499415397644,-0.09498947113752365,1.092226266860962
1778601117147711250,9.601711250000001,0.3205513060092926,-0.09697478264570236,1.0902409553527832
1778601117158487604,9.612487604,0.32421648502349854,-0.09285144507884979,1.0739002227783203
1778601117169263958,9.623263958,0.33017241954803467,-0.08460476994514465,1.0581705570220947
1778601117180040312,9.634040312,0.32940882444381714,-0.07360920310020447,1.0409135818481445
1778601117190816666,9.644816666,0.3246746361255646,-0.07040216773748398,1.0291544198989868
1778601117201593020,9.655593020000001,0.3237583339214325,-0.06154462695121765,1.0276272296905518
1778601117212369375,9.666369375,0.31932955980300903,-0.05299251899123192,1.033583164215088
1778601117223145729,9.677145729000001,0.30344706773757935,-0.04428769648075104,1.036637544631958
1778601117233922083,9.687922083,0.29077163338661194,-0.03588830679655075,1.041066288948059
1778601117244698437,9.698698437000001,0.29443681240081787,-0.013133592903614044,1.0523673295974731
1778601117255474791,9.709474791,0.29413139820098877,-0.008857538923621178,1.0593922138214111
1778601117266251093,9.720251093,0.28787001967430115,-0.023518294095993042,1.0601558685302734
1778601117277027500,9.7310275,0.2919933497905731,-0.024434590712189674,1.0613775253295898
1778601117287803802,9.741803802,0.3042106628417969,-0.016798781231045723,1.0589340925216675
1778601117298580208,9.752580208000001,0.31673339009284973,-0.016798781231045723,1.0482439994812012
1778601117309356510,9.763356510000001,0.3222311735153198,-0.028405211865901947,1.0418298244476318
1778601117320132916,9.774132916000001,0.3168860971927643,-0.0383317656815052,1.042288064956665
1778601117330909218,9.784909218000001,0.30833399295806885,-0.02977965772151947,1.0494656562805176
1778601117341685625,9.795685625,0.30512696504592896,-0.012980876490473747,1.0581705570220947
1778601117352461927,9.806461927,0.2968802750110626,-0.011911863461136818,1.0618356466293335
1778601117363238333,9.817238333,0.28496840596199036,-0.004886918235570192,1.0609194040298462
1778601117374014635,9.828014635,0.27458372712135315,0.006414080038666725,1.0512982606887817
1778601117384791041,9.838791041,0.2683223485946655,0.009315688163042068,1.0349576473236084
1778601117395567343,9.849567343,0.2683223485946655,0.01511890348047018,1.0230457782745361
1778601117406343750,9.86034375,0.2715294063091278,0.03497200831770897,1.0210604667663574
1778601117417120052,9.871120052,0.2704603672027588,0.05894844979047775,1.023962140083313
1778601117427896458,9.881896458,0.2605338394641876,0.06811141967773438,1.027169108390808
1778601117438672760,9.89267276,0.24434591829776764,0.04841103404760361,1.0262528657913208
1778601117449449062,9.903449062,0.2409861534833908,0.05696314200758934,1.018617033958435
1778601117460225468,9.914225468000001,0.24236060678958893,0.07452550530433655,1.0039563179016113
1778601117471001770,9.925001770000001,0.23747368156909943,0.07330377399921417,0.9841031432151794
1778601117481778177,9.935778177000001,0.23014330863952637,0.06994401663541794,0.9721912741661072
1778601117492554479,9.946554479000001,0.22846342623233795,0.08826996386051178,0.9738711714744568
1778601117503330885,9.957330885000001,0.2263254076242447,0.11331541836261749,0.9804379940032959
1778601117514107187,9.968107187000001,0.22510367631912231,0.12492185086011887,0.9856303334236145
1778601117524883593,9.978883593,0.21945317089557648,0.10965022444725037,0.9885319471359253
1778601117535659895,9.989659895,0.21349723637104034,0.10018182545900345,0.9966259002685547
1778601117546436302,10.000436302,0.21380266547203064,0.10109812021255493,1.003192663192749
1778601117557212604,10.011212604,0.2159406989812851,0.10827577859163284,0.9993748068809509
1778601117567988958,10.021988958000001,0.21945317089557648,0.1107192412018776,0.9888373613357544
1778601117578765312,10.032765312,0.22036947309970856,0.1029307171702385,0.9749401807785034
1778601117589541666,10.043541666000001,0.21502439677715302,0.08918625861406326,0.961195707321167
1778601117600318020,10.05431802,0.19761475920677185,0.09285144507884979,0.9592103958129883
1778601117611094323,10.065094323,0.1805105358362198,0.10170898586511612,0.9592103958129883
1778601117621870729,10.075870729,0.16615521907806396,0.10338886082172394,0.9563088417053223
1778601117632647031,10.086647031,0.16340632736682892,0.10842850059270859,0.9448550939559937
1778601117643423437,10.097423437,0.1649334877729416,0.11117739230394363,0.9266818761825562
1778601117654199739,10.108199739,0.16905683279037476,0.10873392969369888,0.9176716208457947
1778601117664976041,10.118976041,0.17195843160152435,0.10354158282279968,0.9094249606132507
1778601117675752448,10.129752448000001,0.1747073233127594,0.10094540566205978,0.8988875150680542
1778601117686528750,10.140528750000001,0.18295399844646454,0.10186170041561127,0.8869756460189819
1778601117697305156,10.151305156000001,0.1893680840730667,0.0974329337477684,0.8678861260414124
1778601117708081458,10.162081458000001,0.19211697578430176,0.08552107214927673,0.8521563410758972
1778601117718857864,10.172857864000001,0.1905898153781891,0.07574722915887833,0.8520036339759827
1778601117729634166,10.183634166000001,0.18692462146282196,0.08429934084415436,0.8600975871086121
1778601117740410520,10.19441052,0.18280129134655,0.09987638890743256,0.870482325553894
1778601117751186875,10.205186875,0.18081597983837128,0.10216713696718216,0.8788816928863525
1778601117761963177,10.215963177,0.1815795600414276,0.09941824525594711,0.8768963813781738
1778601117772739583,10.226739583,0.18203771114349365,0.09926552325487137,0.8759800791740417
1778601117783515885,10.237515885,0.1798996776342392,0.09285144507884979,0.880256175994873
1778601117794292291,10.248292291,0.1853974610567093,0.10109812021255493,0.8759800791740417
1778601117805068593,10.259068593,0.19501857459545135,0.11438442766666412,0.8619301915168762
1778601117815844895,10.269844895,0.1957821547985077,0.10903936624526978,0.8405499458312988
1778601117826621302,10.280621302,0.19013166427612305,0.09987638890743256,0.8203914165496826
1778601117837397604,10.291397604,0.18723005056381226,0.09651663154363632,0.8011491298675537
1778601117848173958,10.302173958000001,0.18692462146282196,0.08674279600381851,0.7845031023025513
1778601117858950312,10.312950312,0.18845178186893463,0.07086031138896942,0.7693842053413391
1778601117869726614,10.323726614,0.20250166952610016,0.06444623321294785,0.7608320713043213
1778601117880503020,10.334503020000001,0.21838416159152985,0.07422006875276566,0.7564033269882202
1778601117891279323,10.345279323000002,0.231212317943573,0.07742711156606674,0.7612902522087097
1778601117902055625,10.356055625,0.24113887548446655,0.07773254066705704,0.7747292518615723
1778601117912832031,10.366832031000001,0.24236060678958893,0.07360920310020447,0.7930551767349243
1778601117923608333,10.377608333000001,0.23487751185894012,0.06566796451807022,0.8104648590087891
1778601117934384739,10.388384739000001,0.23533566296100616,0.06475166976451874,0.8126028776168823
1778601117945161041,10.399161041000001,0.23426663875579834,0.060322895646095276,0.7958040833473206
1778601117955937343,10.409937343000001,0.2328922003507614,0.047952886670827866,0.7738129496574402
1778601117966713750,10.42071375,0.22678354382514954,0.03329212963581085,0.7583886384963989
1778601117977490052,10.431490052000001,0.2240346521139145,0.026419902220368385,0.7478511929512024
1778601117988266354,10.442266354000001,0.22678354382514954,0.029626941308379173,0.730594277381897
1778601117999042760,10.45304276,0.22815799713134766,0.028863361105322838,0.7144063711166382
1778601118009819062,10.463819062,0.22357651591300964,0.013744457624852657,0.6957749724388123
1778601118020595416,10.474595416000001,0.21914774179458618,0.005803215317428112,0.6798924803733826
1778601118031371770,10.48537177,0.2153298407793045,0.000305432389723137,0.6740893125534058
1778601118042148073,10.496148073,0.20922118425369263,-0.004123337101191282,0.6774490475654602
1778601118052924479,10.506924479,0.20311254262924194,-0.011300998739898205,0.6805033683776855
1778601118063700781,10.517700781,0.19990549981594086,-0.010537417605519295,0.6789761781692505
1778601118074477083,10.528477083,0.19639302790164948,-0.001221729558892548,0.6696605086326599
1778601118085253489,10.539253489,0.19425499439239502,-0.006566796451807022,0.6601921319961548
1778601118096029791,10.550029791,0.19349141418933868,-0.014202605932950974,0.6554579138755798
1778601118106806093,10.560806093,0.19624030590057373,0.003970621153712273,0.6491965651512146
1778601118117582500,10.5715825,0.20311254262924194,0.032070402055978775,0.638353705406189
1778601118128358802,10.582358802,0.210442915558815,0.04428769648075104,0.6125446557998657
1778601118139135104,10.593135104,0.210442915558815,0.03375028073787689,0.5800161361694336
1778601118149911458,10.603911458,0.20616686344146729,0.0102319847792387,0.5543597936630249
1778601118160687812,10.614687812000001,0.20693044364452362,0.004428769461810589,0.5458076596260071
1778601118171464114,10.625464114000001,0.2084576040506363,0.0021380267571657896,0.5523744821548462
1778601118182240416,10.636240416000001,0.21135921776294708,-0.002443459117785096,0.5665770769119263
1778601118193016823,10.647016823000001,0.21380266547203064,-0.004123337101191282,0.5937605500221252
1778601118203793125,10.657793125000001,0.21380266547203064,0.005803215317428112,0.6218603253364563
1778601118214569479,10.668569479,0.2130390852689743,0.019242240116000175,0.6340776681900024
1778601118225345833,10.679345833000001,0.19471314549446106,0.0021380267571657896,0.6178897023200989
1778601118236122135,10.690122135000001,0.18035782873630524,-0.03222311660647392,0.5946768522262573
1778601118246898437,10.700898437000001,0.1747073233127594,-0.04810560122132301,0.5795579552650452
1778601118257674843,10.711674843,0.16584978997707367,-0.06108647957444191,0.5760455131530762
1778601118268451145,10.722451145,0.1585194170475006,-0.06352993845939636,0.5827649831771851
1778601118279227448,10.733227448000001,0.1539379209280014,-0.054672397673130035,0.5870410799980164
1778601118290003854,10.744003854,0.14828743040561676,-0.05940660089254379,0.586888313293457
1778601118300780156,10.754780156,0.14569124579429626,-0.07131846249103546,0.5864301919937134
1778601118311556458,10.765556458,0.1314886510372162,-0.0850629210472107,0.5882627964019775
1778601118322332760,10.77633276,0.11148282140493393,-0.08032871782779694,0.6003273725509644
1778601118333109166,10.787109166,0.08888082206249237,-0.06322450190782547,0.6195695996284485
1778601118343885468,10.797885468,0.06750056147575378,-0.061850059777498245,0.6337721943855286
1778601118354661770,10.80866177,0.05451968312263489,-0.0565049909055233,0.6493492722511292
1778601118365438125,10.819438125000001,0.05696314200758934,-0.03497200831770897,0.6542361974716187
1778601118376214479,10.830214479,0.06673697382211685,-0.018784092739224434,0.6508764028549194
1778601118386990781,10.840990781,0.07544180005788803,-0.020769402384757996,0.6406444311141968
1778601118397767083,10.851767083,0.07376192510128021,-0.04001164436340332,0.6255255341529846
1778601118408543437,10.862543437000001,0.07284562289714813,-0.04841103404760361,0.6268999576568604
1778601118419319791,10.873319791,0.07284562289714813,-0.06933315098285675,0.6267472505569458
1778601118430096093,10.884096093,0.07910698652267456,-0.08093958348035812,0.6272054314613342
1778601118440872395,10.894872395,0.08032871782779694,-0.09193515032529831,0.6340776681900024
1778601118451648750,10.905648750000001,0.08017600327730179,-0.09285144507884979,0.6352993845939636
1778601118462425104,10.916425104,0.07651081681251526,-0.09605848789215088,0.6296488642692566
1778601118473201406,10.927201406,0.0717766135931015,-0.09896009415388107,0.6210967898368835
1778601118483977708,10.937977708,0.06352993845939636,-0.0925460159778595,0.614682674407959
1778601118494754062,10.948754062,0.043982263654470444,-0.09071341902017593,0.6039925217628479
1778601118505530416,10.959530416000002,0.03145953640341759,-0.07941242307424545,0.5795579552650452
1778601118516306718,10.970306718000002,0.025350889191031456,-0.07864884287118912,0.5477929711341858
1778601118527083020,10.98108302,0.023976443335413933,-0.07498364895582199,0.5201513767242432
1778601118537859323,10.991859323,0.03252854943275452,-0.04550942778587341,0.5006036758422852
1778601118548635729,11.002635729000001,0.05451968312263489,-0.005345067009329796,0.49403688311576843
1778601118559412031,11.013412031000001,0.07498364895582199,0.009010255336761475,0.4838049113750458
1778601118570188333,11.024188333000001,0.09529490768909454,0.015577051788568497,0.4815141558647156
1778601118580964635,11.034964635000001,0.11209368705749512,0.019853105768561363,0.4923570156097412
1778601118591740937,11.045740937000001,0.1279761642217636,0.021227551624178886,0.5071704983711243
1778601118602517343,11.056517343000001,0.14202606678009033,0.036651886999607086,0.5196931958198547
1778601118613293541,11.067293541000002,0.15149445831775665,0.04673115536570549,0.5343539714813232
1778601118624069948,11.078069948000001,0.15561780333518982,0.04978547990322113,0.5632173418998718
1778601118634846250,11.088846250000001,0.14660754799842834,0.05818486958742142,0.5992583632469177
1778601118645622604,11.099622604,0.1363755613565445,0.07055488228797913,0.6264418363571167
1778601118656398958,11.110398958000001,0.12614357471466064,0.08032871782779694,0.6462949514389038
1778601118667175260,11.121175260000001,0.10674861818552017,0.055741410702466965,0.6598866581916809
1778601118677951562,11.131951562000001,0.0847574844956398,0.03023780696094036,0.667064368724823
1778601118688727864,11.142727864000001,0.0720820426940918,0.017562363296747208,0.6618719696998596
1778601118699504166,11.153504166000001,0.06352993845939636,-0.00946840364485979,0.648127555847168
1778601118710280520,11.16428052,0.05696314200758934,-0.010995565913617611,0.6365211009979248
1778601118721056875,11.175056875000001,0.055741410702466965,0.005650499369949102,0.6191114783287048
1778601118731833177,11.185833177000001,0.04734202101826668,-0.003970621153712273,0.596662163734436
1778601118742609479,11.196609479000001,0.03252854943275452,-0.02611446939408779,0.5763509273529053
1778601118753385781,11.207385781000001,0.022754713892936707,-0.02367101050913334,0.5430588126182556
1778601118764162083,11.218162083000001,0.024892739951610565,-0.008246674202382565,0.5001455545425415
1778601118774938437,11.228938437,0.028099779039621353,0.002443459117785096,0.46486809849739075
1778601118785714791,11.239714791,0.03909534588456154,0.04306596517562866,0.44318240880966187
1778601118796491093,11.250491093,0.0642935186624527,0.08872810751199722,0.42821621894836426
1778601118807267395,11.261267395,0.08582650125026703,0.10140355676412582,0.42073312401771545
1778601118818043698,11.272043698000001,0.10170898586511612,0.11148282140493393,0.42882707715034485
1778601118828820000,11.282820000000001,0.11316270381212234,0.12431098520755768,0.448527455329895
1778601118839596302,11.293596302000001,0.12293653935194016,0.1311832070350647,0.4676169753074646
1778601118850372708,11.304372708,0.12583814561367035,0.12247838824987411,0.48273590207099915
1778601118861149010,11.31514901,0.13393209874629974,0.12140937149524689,0.49373146891593933
1778601118871925312,11.325925312,0.14981459081172943,0.1185077652335167,0.4984656572341919
1778601118882701614,11.336701614,0.16004657745361328,0.09315688163042068,0.5033525824546814
1778601118893477916,11.347477916,0.17058399319648743,0.07086031138896942,0.5099193453788757
1778601118904254218,11.358254218,0.18173226714134216,0.04978547990322113,0.5152644515037537
1778601118915030520,11.36903052,0.18570289015769958,0.03756818547844887,0.5290089249610901
1778601118925806823,11.379806823000001,0.18402300775051117,0.028099779039621353,0.5367974042892456
1778601118936583229,11.390583229,0.1766926348209381,0.007330377586185932,0.5348120927810669
1778601118947359531,11.401359531,0.1727220118045807,0.002901607658714056,0.5303833484649658
1778601118958135833,11.412135833,0.168904110789299,0.013439024798572063,0.5172497630119324
1778601118968912135,11.422912135,0.1640172004699707,0.010995565913617611,0.49968740344047546
1778601118979688437,11.433688437,0.15729768574237823,0.003970621153712273,0.4874700903892517
1778601118990464739,11.444464739,0.15302163362503052,0.012675444595515728,0.48792824149131775
1778601119001241041,11.455241041,0.14996729791164398,0.03329212963581085,0.4917461574077606
1778601119012017343,11.466017343,0.15057817101478577,0.05345066636800766,0.49281516671180725
1778601119022793645,11.476793645,0.14569124579429626,0.04734202101826668,0.4915934205055237
1778601119033569948,11.487569948,0.15027274191379547,0.05329795181751251,0.4831940531730652
1778601119044346250,11.49834625,0.1637117564678192,0.0847574844956398,0.4770853817462921
1778601119055122604,11.509122604,0.16859868168830872,0.10186170041561127,0.4786125421524048
1778601119065898958,11.519898958,0.16340632736682892,0.09605848789215088,0.48013970255851746
1778601119076675260,11.53067526,0.162031888961792,0.0899498388171196,0.4773908257484436
1778601119087451562,11.541451562,0.15729768574237823,0.06933315098285675,0.46685341000556946
1778601119098227864,11.552227864,0.15347976982593536,0.059864748269319534,0.457843154668808
1778601119109004166,11.563004166,0.15485422313213348,0.06352993845939636,0.45616328716278076
1778601119119780468,11.573780468,0.15347976982593536,0.05955931544303894,0.4546361267566681
1778601119130556770,11.58455677,0.15179990231990814,0.05818486958742142,0.448069304227829
1778601119141333073,11.595333073,0.15149445831775665,0.057726722210645676,0.43982264399528503
1778601119152109375,11.606109375,0.14950916171073914,0.04841103404760361,0.43631017208099365
1778601119162885677,11.616885677,0.15317434072494507,0.0461202897131443,0.4329504072666168
1778601119173661979,11.627661979,0.16523891687393188,0.056199558079242706,0.4378373324871063
1778601119184438281,11.638438281,0.15515965223312378,0.1568395346403122,0.42653632164001465
1778601119195214583,11.649214583000001,0.20127993822097778,0.06444623321294785,0.46059203147888184
1778601119205990885,11.659990885000001,0.17134757339954376,0.039858926087617874,0.4468475878238678
1778601119216767187,11.670767187000001,0.16584978997707367,0.011759147047996521,0.4387536346912384
1778601119227543489,11.681543489000001,0.1750127524137497,0.035124726593494415,0.44929105043411255
1778601119238319791,11.692319791000001,0.1715002804994583,0.032681263983249664,0.44348782300949097
1778601119249096093,11.703096093000001,0.16523891687393188,0.030085090547800064,0.4277580678462982
1778601119259872395,11.713872395000001,0.1649334877729416,0.02932151034474373,0.42974337935447693
1778601119270648698,11.724648698000001,0.1591302752494812,0.008857538923621178,0.4436405599117279
1778601119281425000,11.735425000000001,0.1536324918270111,-0.006872228812426329,0.4612029194831848
1778601119292201302,11.746201302000001,0.16325360536575317,-0.003970621153712273,0.48472121357917786
1778601119302977604,11.756977604000001,0.17348559200763702,-0.021227551624178886,0.5045742988586426
1778601119313753906,11.767753906000001,0.17745621502399445,-0.050090912729501724,0.5296197533607483
1778601119324530208,11.778530208000001,0.18081597983837128,-0.06597339361906052,0.5568032264709473
1778601119335306510,11.789306510000001,0.1847866028547287,-0.07620538026094437,0.583375871181488
1778601119346082812,11.800082812000001,0.19150610268115997,-0.07406735420227051,0.6096430420875549
1778601119356859114,11.810859114000001,0.19990549981594086,-0.07360920310020447,0.6328558921813965
1778601119367635416,11.821635416000001,0.20601414144039154,-0.06872228533029556,0.6562215089797974
1778601119378411718,11.832411718000001,0.21135921776294708,-0.04566214233636856,0.6713404059410095
1778601119389188020,11.843188020000001,0.21166464686393738,-0.04474584385752678,0.6736311316490173
1778601119399964323,11.853964323000001,0.20723587274551392,-0.04673115536570549,0.6687442064285278
1778601119410740625,11.864740625000001,0.208152174949646,-0.04245510324835777,0.6484329700469971
1778601119421516927,11.875516927000001,0.21212279796600342,-0.05451968312263489,0.6235402226448059
1778601119432293229,11.886293229000001,0.22357651591300964,-0.04932733252644539,0.5951350331306458
1778601119443069531,11.897069531000001,0.24510949850082397,-0.016340631991624832,0.5633700489997864
1778601119453845833,11.907845833000001,0.2678641974925995,0.012675444595515728,0.5306887626647949
1778601119464622135,11.918622135000001,0.2695440948009491,0.016187917441129684,0.509155809879303
1778601119475398437,11.929398437000001,0.250149130821228,0.0019853105768561363,0.49541133642196655
1778601119486174739,11.940174739000001,0.22434009611606598,-0.017104214057326317,0.48792824149131775
1778601119496951041,11.950951041000001,0.18845178186893463,-0.04474584385752678,0.4903717041015625
1778601119507727343,11.961727343000002,0.1461493968963623,-0.06383536756038666,0.5099193453788757
1778601119518503645,11.972503645000002,0.11026109009981155,-0.05589412897825241,0.5352702736854553
1778601119529279948,11.983279948000002,0.0870482325553894,-0.03222311660647392,0.5705476999282837
1778601119540056250,11.99405625,0.07360920310020447,-0.016187917441129684,0.6134609580039978
1778601119550832552,12.004832552,0.06811141967773438,-0.012675444595515728,0.6553052067756653
1778601119561608750,12.01560875,0.07910698652267456,-0.010537417605519295,0.6902772188186646
1778601119572385104,12.026385104000001,0.10231985151767731,-0.010537417605519295,0.7200568318367004
1778601119583161354,12.037161354,0.12583814561367035,-0.007024944759905338,0.7359393239021301
1778601119593937708,12.047937708000001,0.14782927930355072,-0.006414080038666725,0.7307469844818115
1778601119604713958,12.058713958,0.17867794632911682,-0.0021380267571657896,0.7195987105369568
1778601119615490260,12.06949026,0.20372340083122253,0.017867794260382652,0.7086031436920166
1778601119626266562,12.080266562,0.2208276242017746,0.05787943676114082,0.6973021626472473
1778601119637042864,12.091042864,0.21868959069252014,0.06230820715427399,0.6933315396308899
1778601119647819166,12.101819166,0.20647229254245758,0.05711585655808449,0.6911935210227966
1778601119658595468,12.112595468,0.2003636509180069,0.07651081681251526,0.6841685771942139
1778601119669371770,12.12337177,0.1957821547985077,0.08552107214927673,0.6679806113243103
1778601119680148073,12.134148073,0.1805105358362198,0.054672397673130035,0.6562215089797974
1778601119690924270,12.14492427,0.16859868168830872,0.0461202897131443,0.6640099883079529
1778601119701700573,12.155700573,0.16050471365451813,0.06352993845939636,0.6789761781692505
1778601119712476875,12.166476875,0.15592323243618011,0.07116574794054031,0.6908880472183228
1778601119723253177,12.177253177,0.15607595443725586,0.06643154472112656,0.6902772188186646
1778601119734029479,12.188029479,0.15806126594543457,0.056657709181308746,0.6870701313018799
1778601119744805781,12.198805781,0.1438586562871933,0.01435532234609127,0.6809614896774292
1778601119755582083,12.209582083,0.13484840095043182,0.0007635809597559273,0.6875283122062683
1778601119766358385,12.220358385,0.13591741025447845,0.023976443335413933,0.6927206516265869
1778601119777134687,12.231134687,0.13561198115348816,0.04520399495959282,0.6933315396308899
1778601119787910885,12.241910885000001,0.12705987691879272,0.06200277432799339,0.6965385675430298
1778601119798687187,12.252687187000001,0.11804962158203125,0.09330959618091583,0.7079922556877136
1778601119809463489,12.263463489000001,0.11285726726055145,0.13103049993515015,0.7202095985412598
1778601119820239791,12.274239791000001,0.10827577859163284,0.15928299725055695,0.7312051653862
1778601119831016093,12.285016093000001,0.10903936624526978,0.1715002804994583,0.7446441650390625
1778601119841792395,12.295792395000001,0.10674861818552017,0.18295399844646454,0.755181610584259
1778601119852568645,12.306568645,0.10063996911048889,0.16539163887500763,0.7481566667556763
1778601119863345000,12.317345000000001,0.09208786487579346,0.12415826320648193,0.7200568318367004
1778601119874121198,12.328121198000002,0.08888082206249237,0.10018182545900345,0.6887500286102295
1778601119884897500,12.338897500000002,0.09498947113752365,0.09040798991918564,0.6528617143630981
1778601119895673802,12.349673802000002,0.10109812021255493,0.07620538026094437,0.6252201199531555
1778601119906450104,12.360450104,0.09453132748603821,0.054214250296354294,0.6191114783287048
1778601119917226302,12.371226302,0.08674279600381851,0.05222893878817558,0.6365211009979248
1778601119928002604,12.382002604,0.08949168771505356,0.07422006875276566,0.6611084342002869
1778601119938778906,12.392778906,0.09193515032529831,0.07406735420227051,0.6737838387489319
1778601119949555208,12.403555208,0.09407317638397217,0.05864302068948746,0.6809614896774292
1778601119960331510,12.41433151,0.10827577859163284,0.06566796451807022,0.6818777918815613
1778601119971107812,12.425107812,0.12736530601978302,0.07544180005788803,0.6635518670082092
1778601119981884010,12.43588401,0.14462223649024963,0.08063415437936783,0.646905779838562
1778601119992660312,12.446660312,0.1539379209280014,0.0772743970155716,0.6354520916938782
1778601120003436614,12.457436614,0.15302163362503052,0.07620538026094437,0.6249146461486816
1778601120014212916,12.468212916,0.1536324918270111,0.08597921580076218,0.6120865345001221
1778601120024989166,12.478989166000002,0.15638138353824615,0.08109229803085327,0.5925388336181641
1778601120035765416,12.489765416000001,0.15485422313213348,0.09162971377372742,0.5914698243141174
1778601120046541718,12.500541718000001,0.1568395346403122,0.10919208079576492,0.593149721622467
1778601120057318020,12.511318020000001,0.16325360536575317,0.125074565410614,0.5865828990936279
1778601120068094323,12.522094323000001,0.1750127524137497,0.12950333952903748,0.5746710300445557
1778601120078870520,12.532870520000001,0.187382772564888,0.1153007298707962,0.5613847374916077
1778601120089646823,12.543646823000001,0.19944734871387482,0.09865466505289078,0.5564978122711182
1778601120100423125,12.554423125000001,0.21456626057624817,0.09162971377372742,0.5746710300445557
1778601120111199427,12.565199427000001,0.22724169492721558,0.08949168771505356,0.6000219583511353
1778601120121975729,12.575975729000001,0.22846342623233795,0.07864884287118912,0.6232348084449768
1778601120132751927,12.586751927000002,0.21960589289665222,0.06307178735733032,0.6359102129936218
1778601120143528229,12.597528229,0.20922118425369263,0.05497783049941063,0.6447677612304688
1778601120154304531,12.608304531,0.20082180202007294,0.053756099194288254,0.641866147518158
1778601120165080833,12.619080833,0.19501857459545135,0.05451968312263489,0.62857985496521
1778601120175857031,12.629857031,0.18493930995464325,0.04810560122132301,0.6163625717163086
1778601120186633333,12.640633333,0.17256930470466614,0.03955349326133728,0.6120865345001221
1778601120197409583,12.651409583000001,0.1649334877729416,0.044898562133312225,0.6186532974243164
1778601120208185937,12.662185937,0.16126830875873566,0.0591011680662632,0.6243038177490234
1778601120218962135,12.672962135,0.15729768574237823,0.06750056147575378,0.6268999576568604
1778601120229738437,12.683738437,0.15470150113105774,0.07544180005788803,0.6296488642692566
1778601120240514739,12.694514739,0.14996729791164398,0.07498364895582199,0.6230821013450623
1778601120251290937,12.705290937000001,0.14569124579429626,0.07773254066705704,0.610559344291687
1778601120262067239,12.716067239000001,0.13851359486579895,0.06963858753442764,0.5949822664260864
1778601120272843541,12.726843541000001,0.1253799945116043,0.04673115536570549,0.5807796716690063
1778601120283619843,12.737619843000001,0.12461641430854797,0.05711585655808449,0.5792525410652161
1778601120294396041,12.748396041000001,0.12996147572994232,0.08399390429258347,0.586888313293457
1778601120305172343,12.759172343000001,0.12950333952903748,0.09697478264570236,0.5893318057060242
1778601120315948645,12.769948645000001,0.129197895526886,0.10476330667734146,0.5836812853813171
1778601120326724948,12.780724948000001,0.13164135813713074,0.10873392969369888,0.5768090486526489
1778601120337501145,12.791501145000002,0.13591741025447845,0.10231985151767731,0.5580250024795532
1778601120348277448,12.802277448000002,0.13652828335762024,0.08384118974208832,0.5367974042892456
1778601120359053750,12.813053750000002,0.13759729266166687,0.06551524996757507,0.5271763205528259
1778601120369830000,12.823830000000001,0.1340848207473755,0.06017018109560013,0.5242747068405151
1778601120380606250,12.83460625,0.1311832070350647,0.06963858753442764,0.516791582107544
1778601120391382552,12.845382552,0.13194678723812103,0.0870482325553894,0.505032479763031
1778601120402158750,12.85615875,0.1383608728647232,0.10338886082172394,0.4949531853199005
1778601120412935052,12.866935052,0.1438586562871933,0.10995566099882126,0.49052441120147705
1778601120423711354,12.877711354,0.1536324918270111,0.11362084746360779,0.4880809485912323
1778601120434487656,12.888487656,0.1649334877729416,0.11331541836261749,0.49281516671180725
1778601120445263958,12.899263958,0.17027856409549713,0.11514800786972046,0.499381959438324
1778601120456040156,12.910040156,0.16936226189136505,0.12171480804681778,0.5025889873504639
1778601120466816458,12.920816458000001,0.16218459606170654,0.11881320178508759,0.49984011054039
1778601120477592760,12.931592760000001,0.14813470840454102,0.10140355676412582,0.4964803457260132
1778601120488369062,12.942369062000001,0.13225223124027252,0.08720094710588455,0.49052441120147705
1778601120499145260,12.953145260000001,0.12614357471466064,0.08872810751199722,0.485484778881073
1778601120509921562,12.963921562000001,0.12217295914888382,0.09239330142736435,0.4770853817462921
1778601120520697864,12.974697864000001,0.11927134543657303,0.09086613357067108,0.4663952589035034
1778601120531474062,12.985474062000002,0.11682789027690887,0.08872810751199722,0.4581485986709595
1778601120542250364,12.996250364000002,0.12415826320648193,0.07864884287118912,0.44318240880966187
1778601120553026666,13.007026666000002,0.12996147572994232,0.08261945843696594,0.4350884258747101
1778601120563802968,13.017802968000002,0.14538581669330597,0.09850194305181503,0.4341721534729004
1778601120574579166,13.028579166,0.16218459606170654,0.09941824525594711,0.4318813979625702
1778601120585355468,13.039355468,0.17562362551689148,0.07895427197217941,0.4166097939014435
1778601120596131770,13.05013177,0.18600831925868988,0.06765327602624893,0.3955349326133728
1778601120606908073,13.060908073,0.18814635276794434,0.07040216773748398,0.37232208251953125
1778601120617684270,13.07168427,0.189673513174057,0.05451968312263489,0.3539961278438568
1778601120628460573,13.082460573,0.18417572975158691,0.05222893878817558,0.34208428859710693
1778601120639236875,13.093236875,0.17883066833019257,0.06017018109560013,0.33765551447868347
1778601120650013177,13.104013177,0.18356487154960632,0.03909534588456154,0.3303251266479492
1778601120660789375,13.114789375,0.18982623517513275,0.03741546720266342,0.32391104102134705
1778601120671565677,13.125565677,0.1957821547985077,0.014660755172371864,0.3266599476337433
1778601120682341979,13.136341979000001,0.19593487679958344,0.006566796451807022,0.33567020297050476
1778601120693118229,13.147118229,0.2023489624261856,0.02153298258781433,0.35353797674179077
1778601120703894479,13.157894479000001,0.20311254262924194,0.0334448479115963,0.36712974309921265
1778601120714670781,13.168670781000001,0.20127993822097778,0.022754713892936707,0.3549124300479889
1778601120725447083,13.179447083000001,0.1954767256975174,0.02718348242342472,0.36285367608070374
1778601120736223333,13.190223333,0.18570289015769958,0.047952886670827866,0.37110036611557007
1778601120746999583,13.200999583000002,0.17302745580673218,0.05833758786320686,0.37140578031539917
1778601120757775885,13.211775885000002,0.16646064817905426,0.04108065739274025,0.37522369623184204
1778601120768552187,13.222552187000002,0.168904110789299,0.02107483521103859,0.3894262909889221
1778601120779328385,13.233328385,0.18371757864952087,0.011453714221715927,0.4134027361869812
1778601120790104687,13.244104687,0.19501857459545135,0.002901607658714056,0.4410443603992462
1778601120800880989,13.254880989,0.1905898153781891,0.024892739951610565,0.49250972270965576
1778601120811657291,13.265657291,0.1795942485332489,0.08796452730894089,0.5572614073753357
1778601120822433489,13.276433489,0.16050471365451813,0.11239911615848541,0.6102539300918579
1778601120833209791,13.287209791,0.1461493968963623,0.12782345712184906,0.6195695996284485
1778601120843986093,13.297986093,0.13652828335762024,0.15561780333518982,0.6059778332710266
1778601120854762395,13.308762395,0.125074565410614,0.17027856409549713,0.5795579552650452
1778601120865538593,13.319538593,0.11652245372533798,0.16096286475658417,0.5487092733383179
1778601120876314895,13.330314895,0.10949750989675522,0.12980876863002777,0.5192350745201111
1778601120887091145,13.341091145,0.10308343172073364,0.10216713696718216,0.4868592321872711
1778601120897867395,13.351867395000001,0.1078176349401474,0.10949750989675522,0.47174033522605896
1778601120908643698,13.362643698000001,0.11484257876873016,0.10430516302585602,0.46685341000556946
1778601120919420000,13.373420000000001,0.12751802802085876,0.07849612087011337,0.46547895669937134
1778601120930196198,13.384196198000001,0.15149445831775665,0.06383536756038666,0.4627300798892975
1778601120940972500,13.394972500000002,0.18280129134655,0.07376192510128021,0.4468475878238678
1778601120951748802,13.405748802000002,0.21212279796600342,0.09285144507884979,0.42195484042167664
1778601120962525104,13.416525104000002,0.23655737936496735,0.10415244847536087,0.3877464234828949
1778601120973301302,13.427301302,0.24770566821098328,0.09407317638397217,0.3474293351173401
1778601120984077604,13.438077604,0.25091269612312317,0.08063415437936783,0.3153589367866516
1778601120994853906,13.448853906,0.2464839369058609,0.06444623321294785,0.2965748608112335
1778601121005630104,13.459630104,0.2367101013660431,0.09453132748603821,0.2802342176437378
1778601121016406406,13.470406406,0.2260199636220932,0.09132428467273712,0.2802342176437378
1778601121027182708,13.481182708,0.2202167510986328,0.08674279600381851,0.287106454372406
