time,seconds_elapsed,z,y,x
1778582563330000000,0.0,0.013744457624852657,0.032070402055978775,-0.009773836471140385
1778582563340774896,0.010774896,0.02000582218170166,0.016646064817905426,-0.03283398225903511
1778582563351549739,0.021549739000000002,0.01908952370285988,0.010537417605519295,-0.031612250953912735
1778582563362324583,0.032324583000000004,0.007635809946805239,-0.014660755172371864,-0.023212861269712448
1778582563373099427,0.043099427,-0.0032070400193333626,-0.0204639695584774,-0.008093958720564842
1778582563383874271,0.053874271,-0.011911863461136818,-0.018631376326084137,-0.001221729558892548
1778582563394649167,0.06464916700000001,-0.013133592903614044,-0.018631376326084137,-0.004734201822429895
1778582563405424062,0.075424062,-0.007024944759905338,-0.0204639695584774,-0.01649334840476513
1778582563416198854,0.086198854,0.0027488914784044027,-0.02611446939408779,-0.023976443335413933
1778582563426973750,0.09697375000000001,0.008552107028663158,-0.022296564653515816,-0.015729768201708794
1778582563437748594,0.107748594,0.009773836471140385,-0.01435532234609127,-0.000610864779446274
1778582563448523437,0.11852343700000001,0.012522728182375431,-0.025961752980947495,0.016035201027989388
1778582563459298333,0.12929833300000002,0.011911863461136818,-0.04245510324835777,0.040775224566459656
1778582563470073125,0.14007312500000002,0.011911863461136818,-0.021227551624178886,0.07009673118591309
1778582563480848021,0.150848021,0.0154243353754282,0.009315688163042068,0.07223475724458694
1778582563491622917,0.161622917,0.014202605932950974,0.004581485874950886,0.05543597787618637
1778582563502397760,0.17239776,0.012217295356094837,0.005650499369949102,0.021991131827235222
1778582563513172604,0.18317260400000002,0.019242240116000175,0.0021380267571657896,-0.01954767294228077
1778582563523947448,0.19394744800000002,0.022449281066656113,-0.023212861269712448,-0.05451968312263489
1778582563534722292,0.204722292,0.024434590712189674,-0.05039634555578232,-0.06963858753442764
1778582563545497187,0.215497187,0.0256563201546669,-0.0461202897131443,-0.05253437161445618
1778582563556272083,0.226272083,0.026419902220368385,-0.021227551624178886,-0.0154243353754282
1778582563567046927,0.23704692700000002,0.024740023538470268,-0.0032070400193333626,0.01954767294228077
1778582563577821771,0.24782177100000002,0.021227551624178886,-0.0021380267571657896,0.040317077189683914
1778582563588596614,0.258596614,0.02412915788590908,0.000305432389723137,0.044440411031246185
1778582563599371458,0.269371458,0.03130681812763214,0.00045814859913662076,0.031001387163996696
1778582563610146354,0.28014635400000004,0.03497200831770897,-0.009773836471140385,0.009773836471140385
1778582563620921250,0.29092125,0.03711003437638283,-0.016187917441129684,-0.007330377586185932
1778582563631696094,0.301696094,0.034208428114652634,-0.029626941308379173,-0.01908952370285988
1778582563642470937,0.312470937,0.02977965772151947,-0.03634645417332649,-0.024740023538470268
1778582563653245781,0.323245781,0.026878049597144127,-0.034208428114652634,-0.03130681812763214
1778582563664020625,0.334020625,0.02107483521103859,-0.023518294095993042,-0.03909534588456154
1778582563674795521,0.34479552100000005,0.012522728182375431,-0.022449281066656113,-0.041844237595796585
1778582563685570417,0.355570417,0.008093958720564842,-0.022449281066656113,-0.037720900028944016
1778582563696345208,0.36634520800000003,0.016187917441129684,-0.009315688163042068,-0.019853105768561363
1778582563707120104,0.377120104,0.02367101050913334,0.0007635809597559273,0.005803215317428112
1778582563717894948,0.387894948,0.02000582218170166,0.01435532234609127,0.03237583488225937
1778582563728669792,0.398669792,0.010995565913617611,0.02932151034474373,0.056810423731803894
1778582563739444687,0.40944468700000003,0.005345067009329796,0.04306596517562866,0.07834340631961823
1778582563750219583,0.420219583,-0.0009162971982732415,0.059864748269319534,0.08720094710588455
1778582563760994375,0.43099437500000004,-0.0009162971982732415,0.08093958348035812,0.09056070446968079
1778582563771769271,0.441769271,0.003665188793092966,0.08643736690282822,0.0873536616563797
1778582563782544114,0.45254411400000005,0.006566796451807022,0.06933315098285675,0.06200277432799339
1778582563793318958,0.463318958,0.008246674202382565,0.04062250629067421,0.022907428443431854
1778582563804093854,0.47409385400000004,0.011911863461136818,0.022754713892936707,-0.003512472379952669
1778582563814868750,0.48486875,0.011911863461136818,0.005650499369949102,-0.010537417605519295
1778582563825643542,0.49564354200000005,0.012522728182375431,-0.004581485874950886,-0.0010690133785828948
1778582563836418437,0.506418437,0.013897174037992954,-0.002443459117785096,0.0038179049734026194
1778582563847193281,0.5171932810000001,0.004581485874950886,0.001679878099821508,0.004886918235570192
1778582563857968125,0.527968125,-0.006566796451807022,0.013897174037992954,0.009162971749901772
1778582563868743021,0.538743021,-0.014202605932950974,0.029626941308379173,0.007024944759905338
1778582563879517917,0.5495179170000001,-0.013744457624852657,0.03741546720266342,-0.006108647678047419
1778582563890292760,0.5602927600000001,-0.012217295356094837,0.017104214057326317,-0.02672533318400383
1778582563901067604,0.571067604,-0.013133592903614044,-0.00045814859913662076,-0.04550942778587341
1778582563911842448,0.5818424480000001,-0.009010255336761475,-0.011759147047996521,-0.05192350596189499
1778582563922617292,0.592617292,-0.006414080038666725,-0.019853105768561363,-0.04917461425065994
1778582563933392187,0.6033921870000001,-0.006566796451807022,-0.021227551624178886,-0.043982263654470444
1778582563944167083,0.614167083,-0.004581485874950886,-0.008093958720564842,-0.03451386094093323
1778582563954941927,0.6249419270000001,-0.0032070400193333626,-0.003970621153712273,-0.018631376326084137
1778582563965716771,0.635716771,0.003359756199643016,-0.007788525894284248,-0.005192350596189499
1778582563976491614,0.646491614,0.012217295356094837,0.003359756199643016,0.006108647678047419
1778582563987266458,0.657266458,0.017562363296747208,0.023518294095993042,0.009010255336761475
1778582563998041354,0.6680413540000001,0.013439024798572063,0.02412915788590908,0.0021380267571657896
1778582564008816250,0.67881625,0.004123337101191282,0.0015271619195118546,-0.013286309316754341
1778582564019591094,0.6895910940000001,-0.000305432389723137,-0.006414080038666725,-0.03252854943275452
1778582564030365937,0.700365937,0.0007635809597559273,0.001679878099821508,-0.04841103404760361
1778582564041140833,0.7111408330000001,-0.007788525894284248,0.00045814859913662076,-0.05818486958742142
1778582564051915625,0.7219156250000001,-0.020769402384757996,-0.007635809946805239,-0.06215549260377884
1778582564062690521,0.7326905210000001,-0.030543239787220955,-0.02519817277789116,-0.05497783049941063
1778582564073465417,0.743465417,-0.026878049597144127,-0.016798781231045723,-0.035735588520765305
1778582564084240260,0.75424026,-0.018325943499803543,-0.0009162971982732415,-0.020769402384757996
1778582564095015104,0.7650151040000001,-0.0102319847792387,0.005650499369949102,-0.013286309316754341
1778582564105790000,0.7757900000000001,-0.005192350596189499,0.012217295356094837,-0.009773836471140385
1778582564116564792,0.7865647920000001,-0.002443459117785096,0.014660755172371864,-0.012980876490473747
1778582564127339687,0.797339687,-0.00045814859913662076,0.018631376326084137,-0.013744457624852657
1778582564138114583,0.808114583,-0.004581485874950886,0.016798781231045723,-0.009773836471140385
1778582564148889427,0.818889427,-0.012522728182375431,0.005345067009329796,-0.004734201822429895
1778582564159664271,0.8296642710000001,-0.013897174037992954,0.006566796451807022,-0.0030543238390237093
1778582564170439167,0.8404391670000001,-0.014966187067329884,0.007635809946805239,-0.0032070400193333626
1778582564181214062,0.851214062,-0.016646064817905426,-0.0019853105768561363,-0.014660755172371864
1778582564191988906,0.861988906,-0.01588248461484909,-0.009010255336761475,-0.03252854943275452
1778582564202763750,0.8727637500000001,-0.011759147047996521,-0.006566796451807022,-0.04153880476951599
1778582564213538594,0.883538594,-0.0102319847792387,0.004123337101191282,-0.04428769648075104
1778582564224313437,0.8943134370000001,-0.010995565913617611,0.004886918235570192,-0.049632761627435684
1778582564235088281,0.905088281,-0.004581485874950886,0.003665188793092966,-0.053756099194288254
1778582564245863229,0.9158632290000001,0.001679878099821508,0.009773836471140385,-0.055741410702466965
1778582564256638073,0.926638073,0.005192350596189499,0.012522728182375431,-0.05604684352874756
1778582564267412917,0.9374129170000001,0.0027488914784044027,0.004886918235570192,-0.051618073135614395
1778582564278187812,0.948187812,-0.0019853105768561363,0.014202605932950974,-0.04718930274248123
1778582564288962708,0.958962708,-0.0032070400193333626,0.03176496922969818,-0.037720900028944016
1778582564299737500,0.9697375,-0.012675444595515728,0.026878049597144127,-0.03329212963581085
1778582564310512396,0.9805123960000001,-0.020769402384757996,0.017562363296747208,-0.04016435891389847
1778582564321287239,0.991287239,-0.019242240116000175,0.0154243353754282,-0.04230238497257233
1778582564332062083,1.002062083,-0.017562363296747208,0.006872228812426329,-0.0409279391169548
1778582564342836979,1.012836979,-0.017562363296747208,0.001679878099821508,-0.04108065739274025
1778582564353611875,1.023611875,-0.014202605932950974,-0.0,-0.04306596517562866
1778582564364386719,1.034386719,-0.009773836471140385,-0.004428769461810589,-0.04764745384454727
1778582564375161458,1.0451614580000002,-0.0007635809597559273,0.005650499369949102,-0.05482511222362518
1778582564385936406,1.055936406,0.00946840364485979,0.002901607658714056,-0.06108647957444191
1778582564396711250,1.06671125,0.012217295356094837,-0.0102319847792387,-0.06795870512723923
1778582564407486146,1.077486146,0.010690134018659592,-0.014660755172371864,-0.07192932814359665
1778582564418261042,1.088261042,0.009773836471140385,-0.026419902220368385,-0.07819069176912308
1778582564429035885,1.0990358850000002,0.008093958720564842,-0.0386371985077858,-0.09117157012224197
1778582564439810729,1.109810729,0.004581485874950886,-0.0435241162776947,-0.10629047453403473
1778582564450585625,1.1205856250000001,0.00045814859913662076,-0.04978547990322113,-0.11728604137897491
1778582564461360521,1.1313605210000002,-0.003665188793092966,-0.05528326332569122,-0.11606431007385254
1778582564472135364,1.142135364,-0.007788525894284248,-0.046883873641490936,-0.11423171311616898
1778582564482910208,1.152910208,-0.008857538923621178,-0.060781046748161316,-0.11606431007385254
1778582564493685052,1.1636850520000002,-0.011453714221715927,-0.07498364895582199,-0.11514800786972046
1778582564504459896,1.1744598960000001,-0.004886918235570192,-0.04734202101826668,-0.10506874322891235
1778582564515234792,1.1852347920000001,0.003665188793092966,-0.028863361105322838,-0.09636391699314117
1778582564526009687,1.196009687,0.004886918235570192,-0.035735588520765305,-0.0873536616563797
1778582564536784531,1.206784531,0.002443459117785096,-0.029016077518463135,-0.08750637620687485
1778582564547559375,1.217559375,0.000305432389723137,-0.032070402055978775,-0.09407317638397217
1778582564558334271,1.228334271,-0.002901607658714056,-0.03787361457943916,-0.1029307171702385
1778582564569109167,1.239109167,-0.008246674202382565,-0.03375028073787689,-0.11972949653863907
1778582564579884010,1.2498840100000002,-0.012522728182375431,-0.03023780696094036,-0.14477495849132538
1778582564590658854,1.260658854,-0.01802051067352295,-0.04810560122132301,-0.1721111536026001
1778582564601433750,1.2714337500000001,-0.021991131827235222,-0.07040216773748398,-0.19425499439239502
1778582564612208542,1.282208542,-0.014966187067329884,-0.07162389904260635,-0.19730933010578156
1778582564622983489,1.292983489,-0.005192350596189499,-0.04673115536570549,-0.17898337543010712
1778582564633758333,1.303758333,-0.001679878099821508,-0.02977965772151947,-0.15470150113105774
1778582564644533177,1.3145331770000002,-0.003665188793092966,-0.03375028073787689,-0.1288924664258957
1778582564655308021,1.3253080210000001,-0.008093958720564842,-0.03741546720266342,-0.11713331937789917
1778582564666082917,1.3360829170000001,-0.016646064817905426,-0.036193739622831345,-0.12644900381565094
1778582564676857812,1.346857812,-0.022296564653515816,-0.03955349326133728,-0.1493564397096634
1778582564687632656,1.357632656,-0.026419902220368385,-0.055741410702466965,-0.18310672044754028
1778582564698407500,1.3684075,-0.03634645417332649,-0.08628465235233307,-0.21578797698020935
1778582564709182396,1.379182396,-0.05497783049941063,-0.11896591633558273,-0.24465134739875793
1778582564719957292,1.389957292,-0.07773254066705704,-0.1536324918270111,-0.2706131041049957
1778582564730732135,1.4007321350000002,-0.09071341902017593,-0.1847866028547287,-0.30375251173973083
1778582564741506979,1.411506979,-0.08826996386051178,-0.16615521907806396,-0.3477347791194916
1778582564752281875,1.4222818750000001,-0.07849612087011337,-0.10018182545900345,-0.37003132700920105
1778582564763056771,1.4330567710000002,-0.0798705667257309,-0.053756099194288254,-0.35246896743774414
1778582564773831562,1.4438315620000002,-0.0850629210472107,0.003970621153712273,-0.30741769075393677
1778582564784606458,1.454606458,-0.08597921580076218,0.041844237595796585,-0.2788597643375397
1778582564795381302,1.4653813020000002,-0.08888082206249237,0.0720820426940918,-0.2744309902191162
1778582564806156146,1.4761561460000001,-0.09697478264570236,0.06887500733137131,-0.2816086709499359
1778582564816931042,1.4869310420000001,-0.09850194305181503,0.04810560122132301,-0.2890917658805847
1778582564827705937,1.497705937,-0.09193515032529831,0.05742128938436508,-0.28817546367645264
1778582564838480781,1.508480781,-0.08460476994514465,0.06719512492418289,-0.2903134822845459
1778582564849255625,1.519255625,-0.08261945843696594,0.0591011680662632,-0.27550002932548523
1778582564860030521,1.530030521,-0.07773254066705704,0.05543597787618637,-0.2608392536640167
1778582564870805417,1.540805417,-0.07620538026094437,0.07009673118591309,-0.20433427393436432
1778582564881580260,1.5515802600000002,-0.07651081681251526,0.1026252806186676,-0.15836669504642487
1778582564892355104,1.562355104,-0.07452550530433655,0.13927717506885529,-0.13683371245861053
1778582564903130000,1.5731300000000001,-0.08063415437936783,0.129197895526886,-0.1571449637413025
1778582564913904896,1.5839048960000002,-0.09208786487579346,0.09651663154363632,-0.20631958544254303
1778582564924679739,1.594679739,-0.09926552325487137,0.040775224566459656,-0.26450446248054504
1778582564935454583,1.605454583,-0.09682206809520721,-0.03451386094093323,-0.31062474846839905
1778582564946229479,1.616229479,-0.08765909820795059,-0.09804379940032959,-0.3526217043399811
1778582564957004375,1.627004375,-0.07544180005788803,-0.06383536756038666,-0.3370446562767029
1778582564967779219,1.637779219,-0.08032871782779694,-0.016646064817905426,-0.2874118685722351
1778582564978554062,1.648554062,-0.09697478264570236,0.013439024798572063,-0.2438877671957016
1778582564989328958,1.6593289580000001,-0.11682789027690887,0.048563748598098755,-0.2006690800189972
1778582565000103854,1.6701038540000002,-0.1383608728647232,0.07330377399921417,-0.1769980639219284
1778582565010878698,1.6808786980000001,-0.1585194170475006,0.10598503798246384,-0.17592905461788177
1778582565021653542,1.691653542,-0.1747073233127594,0.1233946830034256,-0.20112723112106323
1778582565032428437,1.702428437,-0.1925751268863678,0.08552107214927673,-0.23945899307727814
1778582565043203333,1.713203333,-0.2101374864578247,0.001679878099821508,-0.2981020212173462
1778582565053978177,1.723978177,-0.2098320573568344,-0.06887500733137131,-0.3689623177051544
1778582565064753021,1.7347530210000002,-0.187382772564888,-0.10506874322891235,-0.4508182108402252
1778582565075527917,1.7455279170000002,-0.1519526094198227,-0.1279761642217636,-0.5312996506690979
1778582565086302812,1.7563028120000002,-0.10873392969369888,-0.12873975932598114,-0.5607738494873047
1778582565097077656,1.767077656,-0.07483093440532684,-0.08918625861406326,-0.5222893953323364
1778582565107852500,1.7778525,-0.06505709886550903,-0.07330377399921417,-0.4088212549686432
1778582565118627396,1.788627396,-0.09040798991918564,-0.05085449293255806,-0.3017672002315521
1778582565129402292,1.7994022920000001,-0.13958260416984558,-0.031001387163996696,-0.19944734871387482
1778582565140177135,1.8101771350000002,-0.21548254787921906,-0.017867794260382652,-0.12705987691879272
1778582565150951979,1.8209519790000002,-0.2782489061355591,0.015577051788568497,-0.07880155742168427
1778582565161726875,1.8317268750000002,-0.31001389026641846,0.054672397673130035,-0.07849612087011337
1778582565172501667,1.842501667,-0.31322091817855835,0.0642935186624527,-0.1302669197320938
1778582565183276614,1.853276614,-0.3046688139438629,0.0386371985077858,-0.21212279796600342
1778582565194051458,1.864051458,-0.291687935590744,-0.0019853105768561363,-0.2788597643375397
1778582565204826354,1.874826354,-0.2831358313560486,-0.03741546720266342,-0.32528549432754517
1778582565215601250,1.8856012500000001,-0.28496840596199036,-0.0925460159778595,-0.35414886474609375
1778582565226376094,1.896376094,-0.2744309902191162,-0.12660172581672668,-0.3672824501991272
1778582565237150937,1.9071509370000002,-0.26022839546203613,-0.12217295914888382,-0.37171122431755066
1778582565247925833,1.9179258330000002,-0.249690979719162,-0.10216713696718216,-0.366060733795166
1778582565258700729,1.9287007290000002,-0.2536616027355194,-0.09972367435693741,-0.37369653582572937
1778582565269475573,1.9394755730000002,-0.26419901847839355,-0.06841685622930527,-0.38850998878479004
1778582565280250417,1.9502504170000001,-0.2831358313560486,-0.02611446939408779,-0.38759371638298035
1778582565291025312,1.961025312,-0.3029889166355133,-0.0019853105768561363,-0.39080074429512024
1778582565301800208,1.971800208,-0.3136790692806244,0.01511890348047018,-0.38850998878479004
1778582565312575052,1.982575052,-0.3185659945011139,0.01511890348047018,-0.393244206905365
1778582565323349896,1.9933498960000002,-0.32589635252952576,-0.002901607658714056,-0.40546149015426636
1778582565334124792,2.0041247920000003,-0.33017241954803467,-0.0513126403093338,-0.42959064245224
1778582565344899687,2.014899687,-0.31551164388656616,-0.05100720748305321,-0.4263836145401001
1778582565355674531,2.025674531,-0.30375251173973083,-0.05329795181751251,-0.397825688123703
1778582565366449375,2.036449375,-0.3017672002315521,-0.05299251899123192,-0.3724747896194458
1778582565377224271,2.047224271,-0.2919933497905731,-0.030085090547800064,-0.366060733795166
1778582565387999167,2.057999167,-0.28588470816612244,0.020769402384757996,-0.3761399984359741
1778582565398774062,2.068774062,-0.2655734717845917,0.03940077871084213,-0.37491825222969055
1778582565409548958,2.079548958,-0.23732095956802368,0.03711003437638283,-0.3733910918235779
1778582565420323802,2.0903238020000003,-0.21548254787921906,0.02367101050913334,-0.38072147965431213
1778582565431098646,2.101098646,-0.2000582218170166,0.024892739951610565,-0.3871355652809143
1778582565441873542,2.111873542,-0.19135339558124542,-0.014966187067329884,-0.4127918779850006
1778582565452648333,2.1226483330000003,-0.18005239963531494,-0.07009673118591309,-0.4367683231830597
1778582565463423281,2.1334232810000002,-0.15928299725055695,-0.10965022444725037,-0.42943793535232544
1778582565474198125,2.144198125,-0.1490510106086731,-0.12293653935194016,-0.3917170464992523
1778582565484973021,2.154973021,-0.1510363221168518,-0.09560033679008484,-0.3575085997581482
1778582565495747917,2.165747917,-0.16707152128219604,-0.03756818547844887,-0.3272708058357239
1778582565506522760,2.17652276,-0.17348559200763702,0.011911863461136818,-0.2903134822845459
1778582565517297604,2.1872976040000003,-0.1669187992811203,0.04474584385752678,-0.29504770040512085
1778582565528072500,2.1980725000000003,-0.16081015765666962,0.08628465235233307,-0.3084867000579834
1778582565538847396,2.2088473960000004,-0.16279546916484833,0.09376774728298187,-0.34574946761131287
1778582565549622292,2.219622292,-0.17867794632911682,0.02367101050913334,-0.3787361681461334
1778582565560397083,2.230397083,-0.19333870708942413,-0.06765327602624893,-0.38667741417884827
1778582565571172031,2.241172031,-0.18890993297100067,-0.10461059212684631,-0.3897317349910736
1778582565581946875,2.2519468750000002,-0.1737910360097885,-0.12247838824987411,-0.40866854786872864
1778582565592721771,2.2627217710000003,-0.15668681263923645,-0.17516547441482544,-0.44501498341560364
1778582565603496667,2.2734966670000003,-0.14538581669330597,-0.19700388610363007,-0.4445568323135376
1778582565614271510,2.28427151,-0.1328630894422531,-0.1597411334514618,-0.41905322670936584
1778582565625046354,2.295046354,-0.1282816082239151,-0.07941242307424545,-0.41004297137260437
1778582565635821250,2.30582125,-0.12980876863002777,-0.03375028073787689,-0.39080074429512024
1778582565646596146,2.316596146,-0.13683371245861053,0.01954767294228077,-0.3526217043399811
1778582565657371042,2.3273710420000002,-0.15485422313213348,0.05894844979047775,-0.32849252223968506
1778582565668145937,2.338145937,-0.16584978997707367,0.08139773458242416,-0.3274235129356384
1778582565678920781,2.3489207810000003,-0.16325360536575317,0.07254019379615784,-0.34437501430511475
1778582565689695625,2.359695625,-0.16279546916484833,0.0412333719432354,-0.32818710803985596
1778582565700470521,2.370470521,-0.16783510148525238,-0.0154243353754282,-0.3090975880622864
1778582565711245417,2.381245417,-0.1737910360097885,-0.0032070400193333626,-0.28298309445381165
1778582565722020260,2.3920202600000002,-0.1853974610567093,0.036651886999607086,-0.24541492760181427
1778582565732795104,2.402795104,-0.19471314549446106,0.08017600327730179,-0.23518294095993042
1778582565743570000,2.41357,-0.18845178186893463,0.11759147047996521,-0.22434009611606598
1778582565754344896,2.424344896,-0.18417572975158691,0.12415826320648193,-0.2309068888425827
1778582565765119792,2.435119792,-0.17745621502399445,0.11117739230394363,-0.23335035145282745
1778582565775894687,2.445894687,-0.17348559200763702,0.10231985151767731,-0.23029601573944092
1778582565786669531,2.456669531,-0.16340632736682892,0.08552107214927673,-0.22357651591300964
1778582565797444375,2.4674443750000004,-0.1571449637413025,0.07009673118591309,-0.20601414144039154
1778582565808219271,2.478219271,-0.1510363221168518,0.044898562133312225,-0.17547090351581573
1778582565818994167,2.488994167,-0.13591741025447845,0.036193739622831345,-0.16355904936790466
1778582565829769062,2.4997690620000004,-0.10949750989675522,0.0565049909055233,-0.1798996776342392
1778582565840543958,2.510543958,-0.08826996386051178,0.0591011680662632,-0.2075413018465042
1778582565851318802,2.521318802,-0.08796452730894089,0.043982263654470444,-0.22067490220069885
1778582565862093646,2.5320936460000003,-0.09819651395082474,0.04917461425065994,-0.2263254076242447
1778582565872868542,2.5428685420000003,-0.11575887352228165,0.05345066636800766,-0.2211330533027649
1778582565883643437,2.5536434370000003,-0.1360701322555542,0.05955931544303894,-0.20341797173023224
1778582565894418333,2.5644183330000003,-0.16539163887500763,0.003665188793092966,-0.210442915558815
1778582565905193229,2.5751932290000004,-0.19349141418933868,-0.02779434807598591,-0.210442915558815
1778582565915968073,2.585968073,-0.2055560052394867,-0.055741410702466965,-0.21945317089557648
1778582565926742917,2.5967429170000003,-0.2049451321363449,-0.0772743970155716,-0.22785256803035736
1778582565937517812,2.607517812,-0.20112723112106323,-0.10506874322891235,-0.23167046904563904
1778582565948292708,2.6182927080000002,-0.19639302790164948,-0.12293653935194016,-0.24312418699264526
1778582565959067604,2.6290676040000003,-0.18417572975158691,-0.15638138353824615,-0.2551887631416321
1778582565969842500,2.6398425000000003,-0.18280129134655,-0.18203771114349365,-0.26389357447624207
1778582565980617344,2.650617344,-0.19089524447917938,-0.17837251722812653,-0.2883281707763672
1778582565991392187,2.661392187,-0.20127993822097778,-0.12873975932598114,-0.31459537148475647
1778582566002167083,2.672167083,-0.20647229254245758,-0.11148282140493393,-0.33505934476852417
1778582566012941979,2.682941979,-0.19960007071495056,-0.13041962683200836,-0.3594939112663269
1778582566023716875,2.6937168750000002,-0.19593487679958344,-0.1695149689912796,-0.346513032913208
1778582566034491771,2.7044917710000003,-0.19792018830776215,-0.17394374310970306,-0.3533852696418762
1778582566045266614,2.7152666140000004,-0.17638720571994781,-0.14630211889743805,-0.32528549432754517
1778582566056041458,2.726041458,-0.14752385020256042,-0.0948367565870285,-0.318871408700943
1778582566066816406,2.736816406,-0.11316270381212234,-0.017867794260382652,-0.30573782324790955
1778582566077591250,2.74759125,-0.09117157012224197,0.06352993845939636,-0.3072649836540222
1778582566088366146,2.758366146,-0.08139773458242416,0.10965022444725037,-0.33108872175216675
1778582566099141042,2.769141042,-0.07406735420227051,0.11148282140493393,-0.35124725103378296
1778582566109915937,2.779915937,-0.07895427197217941,0.04917461425065994,-0.37369653582572937
1778582566120690833,2.790690833,-0.08796452730894089,-0.026572618633508682,-0.4013381600379944
1778582566131465677,2.8014656770000004,-0.11484257876873016,-0.1029307171702385,-0.38927358388900757
1778582566142240521,2.812240521,-0.14172062277793884,-0.13041962683200836,-0.351705402135849
1778582566153015417,2.823015417,-0.15241076052188873,-0.07910698652267456,-0.3090975880622864
1778582566163790312,2.833790312,-0.14340050518512726,-0.011300998739898205,-0.282524973154068
1778582566174565208,2.844565208,-0.11896591633558273,0.005192350596189499,-0.2695440948009491
1778582566185340104,2.855340104,-0.10170898586511612,0.021685699000954628,-0.24709481000900269
1778582566196114948,2.8661149480000003,-0.08628465235233307,0.044440411031246185,-0.20158538222312927
1778582566206889896,2.8768898960000002,-0.08949168771505356,0.04108065739274025,-0.1640172004699707
1778582566217664739,2.8876647390000003,-0.1107192412018776,0.03588830679655075,-0.1461493968963623
1778582566228439583,2.898439583,-0.13194678723812103,0.0308486707508564,-0.14202606678009033
1778582566239214479,2.909214479,-0.15073087811470032,-0.0021380267571657896,-0.14813470840454102
1778582566249989375,2.919989375,-0.16004657745361328,-0.025961752980947495,-0.1545487940311432
1778582566260764271,2.930764271,-0.15836669504642487,-0.03497200831770897,-0.14721840620040894
1778582566271539167,2.941539167,-0.14508038759231567,-0.022907428443431854,-0.12782345712184906
1778582566282314010,2.9523140100000003,-0.13194678723812103,0.0032070400193333626,-0.11224640160799026
1778582566293088854,2.963088854,-0.13041962683200836,0.035124726593494415,-0.10140355676412582
1778582566303863802,2.9738638020000003,-0.1383608728647232,0.05711585655808449,-0.11148282140493393
1778582566314638646,2.984638646,-0.14538581669330597,0.052076224237680435,-0.12767073512077332
1778582566325413542,2.995413542,-0.14172062277793884,0.0386371985077858,-0.13423752784729004
1778582566336188437,3.006188437,-0.13881902396678925,0.024740023538470268,-0.1383608728647232
1778582566346963333,3.016963333,-0.13958260416984558,0.0102319847792387,-0.13713914155960083
1778582566357738229,3.027738229,-0.14981459081172943,-0.01511890348047018,-0.11713331937789917
1778582566368513073,3.0385130730000003,-0.16661337018013,-0.04306596517562866,-0.09162971377372742
1778582566379288021,3.049288021,-0.16707152128219604,-0.043982263654470444,-0.07040216773748398
1778582566390062864,3.0600628640000003,-0.15118902921676636,-0.024434590712189674,-0.05528326332569122
1778582566400837708,3.070837708,-0.12705987691879272,0.021991131827235222,-0.05238165333867073
1778582566411612604,3.081612604,-0.10583232343196869,0.06750056147575378,-0.064598947763443
1778582566422387500,3.0923875,-0.0974329337477684,0.06276635825634003,-0.06795870512723923
1778582566433162396,3.103162396,-0.08796452730894089,0.025961752980947495,-0.05696314200758934
1778582566443937292,3.113937292,-0.0769689604640007,-0.0021380267571657896,-0.0487164668738842
1778582566454712187,3.124712187,-0.06643154472112656,0.002443459117785096,-0.04627300798892975
1778582566465487083,3.135487083,-0.06566796451807022,0.028099779039621353,-0.03848448023200035
1778582566476261927,3.1462619270000003,-0.06322450190782547,0.05742128938436508,-0.02672533318400383
1778582566487036771,3.157036771,-0.0639880821108818,0.07483093440532684,-0.019394956529140472
1778582566497811719,3.1678117190000004,-0.07360920310020447,0.08139773458242416,-0.01206457894295454
1778582566508586562,3.178586562,-0.07788526266813278,0.07498364895582199,-0.014660755172371864
1778582566519361458,3.189361458,-0.07116574794054031,0.06444623321294785,-0.016646064817905426
1778582566530136354,3.200136354,-0.07910698652267456,0.056199558079242706,-0.027947064489126205
1778582566540911250,3.21091125,-0.11636973917484283,0.03023780696094036,-0.04428769648075104
1778582566551686146,3.221686146,-0.16539163887500763,-0.0154243353754282,-0.047494735568761826
1778582566562460989,3.2324609890000002,-0.21548254787921906,-0.06307178735733032,-0.055741410702466965
1778582566573235937,3.243235937,-0.23915356397628784,-0.1026252806186676,-0.06719512492418289
1778582566584010781,3.2540107810000003,-0.23182319104671478,-0.10018182545900345,-0.08750637620687485
1778582566594785625,3.264785625,-0.2655734717845917,-0.0870482325553894,-0.12782345712184906
1778582566605560573,3.2755605730000004,-0.30833399295806885,-0.15515965223312378,-0.15592323243618011
1778582566616335417,3.286335417,-0.24281874299049377,-0.09575305134057999,-0.12935061752796173
1778582566627110312,3.297110312,-0.18280129134655,-0.0102319847792387,-0.10690133273601532
1778582566637885208,3.307885208,-0.19761475920677185,-0.006108647678047419,-0.09040798991918564
1778582566648660104,3.318660104,-0.18845178186893463,-0.006108647678047419,-0.08368847519159317
1778582566659435000,3.329435,-0.17638720571994781,0.029626941308379173,-0.07773254066705704
1778582566670209896,3.340209896,-0.15439607203006744,0.04321868345141411,-0.06475166976451874
1778582566680984792,3.350984792,-0.12583814561367035,0.03634645417332649,-0.06352993845939636
1778582566691759687,3.361759687,-0.10231985151767731,0.024892739951610565,-0.05742128938436508
1778582566702534583,3.372534583,-0.09208786487579346,-0.0032070400193333626,-0.04886918142437935
1778582566713309427,3.3833094270000004,-0.07528908550739288,-0.00946840364485979,-0.04230238497257233
1778582566724084375,3.3940843750000003,-0.0461202897131443,0.023976443335413933,-0.022754713892936707
1778582566734859219,3.404859219,-0.03176496922969818,0.04428769648075104,-0.000610864779446274
1778582566745634062,3.415634062,-0.04276053607463837,0.04001164436340332,0.02214384824037552
1778582566756408958,3.426408958,-0.0642935186624527,0.01435532234609127,0.04566214233636856
1778582566767183854,3.437183854,-0.09132428467273712,-0.014966187067329884,0.05589412897825241
1778582566777958750,3.44795875,-0.10109812021255493,-0.003359756199643016,0.053756099194288254
1778582566788733646,3.458733646,-0.08872810751199722,0.0154243353754282,0.04199695214629173
1778582566799508542,3.4695085420000003,-0.06933315098285675,0.002901607658714056,0.028099779039621353
1778582566810283437,3.480283437,-0.04734202101826668,-0.0032070400193333626,0.014660755172371864
1778582566821058333,3.4910583330000002,-0.024740023538470268,0.009010255336761475,-0.008093958720564842
1778582566831833229,3.5018332290000003,-0.0021380267571657896,0.02611446939408779,-0.028863361105322838
1778582566842608073,3.512608073,0.0102319847792387,0.019242240116000175,-0.040317077189683914
1778582566853383021,3.5233830210000003,0.008093958720564842,-0.0032070400193333626,-0.043371398001909256
1778582566864157864,3.5341578640000004,0.008857538923621178,-0.009010255336761475,-0.051618073135614395
1778582566874932812,3.5449328120000003,0.013133592903614044,-0.005803215317428112,-0.056810423731803894
1778582566885707656,3.555707656,0.0154243353754282,-0.010537417605519295,-0.04993819445371628
1778582566896482500,3.5664825,0.0021380267571657896,-0.03145953640341759,-0.030085090547800064
1778582566907257396,3.5772573960000003,-0.01511890348047018,-0.038789913058280945,-0.009773836471140385
1778582566918032292,3.5880322920000003,-0.014966187067329884,-0.028099779039621353,0.0021380267571657896
1778582566928807187,3.5988071870000002,0.0007635809597559273,-0.006566796451807022,0.009773836471140385
1778582566939582083,3.6095820830000003,0.025961752980947495,0.018325943499803543,0.008704823441803455
1778582566950356979,3.6203569790000003,0.03955349326133728,0.019853105768561363,0.01435532234609127
1778582566961131875,3.6311318750000003,0.03543015569448471,0.018325943499803543,0.019242240116000175
1778582566971906771,3.6419067710000004,0.024892739951610565,0.013133592903614044,0.019242240116000175
1778582566982681667,3.6526816670000004,0.013439024798572063,0.001679878099821508,0.017256930470466614
1778582566993456562,3.6634565620000004,0.003970621153712273,-0.006414080038666725,0.0062613640911877155
1778582567004231458,3.6742314580000004,0.004428769461810589,-0.006566796451807022,-0.0032070400193333626
1778582567015006354,3.6850063540000004,0.014202605932950974,-0.008246674202382565,0.0013744457392022014
1778582567025781250,3.69578125,0.023212861269712448,-0.011911863461136818,0.007788525894284248
1778582567036556094,3.706556094,0.02718348242342472,-0.016187917441129684,0.014049889519810677
1778582567047331042,3.717331042,0.0334448479115963,-0.028099779039621353,0.016340631991624832
1778582567058105885,3.728105885,0.04886918142437935,-0.031001387163996696,0.014813470654189587
1778582567068880729,3.7388807290000003,0.06383536756038666,-0.030085090547800064,0.012370011769235134
1778582567079655677,3.7496556770000002,0.07422006875276566,-0.010079269297420979,0.027336198836565018
1778582567090430521,3.7604305210000004,0.07330377399921417,-0.003359756199643016,0.04657844081521034
1778582567101205469,3.7712054690000003,0.06994401663541794,0.0015271619195118546,0.06520981341600418
1778582567111980312,3.7819803120000004,0.06750056147575378,0.008552107028663158,0.08109229803085327
1778582567122755260,3.7927552600000003,0.056199558079242706,-0.003665188793092966,0.08613193035125732
1778582567133530104,3.803530104,0.05085449293255806,-0.01588248461484909,0.0798705667257309
1778582567144305000,3.814305,0.05222893878817558,-0.015577051788568497,0.06200277432799339
1778582567155079896,3.825079896,0.060781046748161316,0.024740023538470268,0.042913250625133514
1778582567165854792,3.835854792,0.0668896958231926,0.06322450190782547,0.02214384824037552
1778582567176629687,3.846629687,0.060781046748161316,0.0720820426940918,0.008552107028663158
1778582567187404583,3.857404583,0.04428769648075104,0.06307178735733032,-0.010537417605519295
1778582567198179479,3.868179479,0.021227551624178886,0.03497200831770897,-0.031612250953912735
1778582567208954375,3.878954375,0.003970621153712273,0.010690134018659592,-0.04474584385752678
1778582567219729271,3.889729271,-0.011759147047996521,0.004581485874950886,-0.043371398001909256
1778582567230504167,3.9005041670000002,-0.040775224566459656,-0.011759147047996521,-0.023823726922273636
1778582567241279062,3.911279062,-0.0639880821108818,-0.019853105768561363,0.008552107028663158
1778582567252053958,3.9220539580000002,-0.06841685622930527,-0.013133592903614044,0.0334448479115963
1778582567262828854,3.9328288540000003,-0.06062832847237587,-0.005803215317428112,0.048563748598098755
1778582567273603750,3.9436037500000003,-0.045967575162649155,0.009773836471140385,0.0616973415017128
1778582567284378646,3.9543786460000003,-0.03130681812763214,0.021227551624178886,0.07391463965177536
1778582567295153542,3.9651535420000004,-0.023212861269712448,0.031001387163996696,0.0844520553946495
1778582567305928437,3.9759284370000003,-0.016646064817905426,0.04841103404760361,0.08613193035125732
1778582567316703333,3.9867033330000003,-0.013744457624852657,0.04764745384454727,0.0746782198548317
1778582567327478229,3.9974782290000004,-0.006414080038666725,0.04276053607463837,0.05742128938436508
1778582567338253125,4.008253125,0.006566796451807022,0.036651886999607086,0.035124726593494415
1778582567349028021,4.0190280210000005,0.022449281066656113,0.028405211865901947,0.010995565913617611
1778582567359802917,4.0298029170000005,0.03145953640341759,0.013897174037992954,-0.012217295356094837
1778582567370577812,4.040577812,0.02412915788590908,-0.00946840364485979,-0.012522728182375431
1778582567381352708,4.0513527080000005,0.0102319847792387,-0.03390299528837204,-0.0015271619195118546
1778582567392127604,4.0621276040000005,-0.00045814859913662076,-0.0461202897131443,0.012370011769235134
1778582567402902500,4.0729025000000005,-0.018784092739224434,-0.05253437161445618,0.02626718580722809
1778582567413677396,4.083677396000001,-0.029016077518463135,-0.04276053607463837,0.04199695214629173
1778582567424452292,4.094452292000001,-0.013744457624852657,-0.024434590712189674,0.06001746281981468
1778582567435227187,4.1052271870000006,0.012522728182375431,-0.016798781231045723,0.06765327602624893
1778582567446002031,4.116002031,0.027336198836565018,-0.02779434807598591,0.05513054504990578
1778582567456776979,4.126776979000001,0.032681263983249664,-0.03695731982588768,0.03787361457943916
1778582567467551823,4.137551823,0.03222311660647392,-0.03940077871084213,0.0256563201546669
1778582567478326771,4.148326771000001,0.03298669680953026,-0.022907428443431854,0.016340631991624832
1778582567489101614,4.159101614,0.023518294095993042,-0.00946840364485979,0.005039634648710489
1778582567499876562,4.169876562000001,0.012980876490473747,0.00045814859913662076,0.001221729558892548
1778582567510651406,4.180651406,0.005345067009329796,0.012980876490473747,0.001679878099821508
1778582567521426354,4.191426354,-0.0032070400193333626,0.013897174037992954,0.012217295356094837
1778582567532201198,4.202201198,-0.013133592903614044,0.02977965772151947,0.023823726922273636
1778582567542976146,4.212976146,-0.023518294095993042,0.04917461425065994,0.03237583488225937
1778582567553750989,4.223750989,-0.032681263983249664,0.05940660089254379,0.03298669680953026
1778582567564525937,4.234525937,-0.03909534588456154,0.056657709181308746,0.030543239787220955
1778582567575300781,4.245300781,-0.041844237595796585,0.05543597787618637,0.027030766010284424
1778582567586075729,4.256075729,-0.03909534588456154,0.07009673118591309,0.02260199747979641
1778582567596850573,4.266850573,-0.029626941308379173,0.07498364895582199,0.02367101050913334
1778582567607625521,4.277625521,-0.007788525894284248,0.08872810751199722,0.028099779039621353
1778582567618400417,4.288400417,0.013439024798572063,0.10384701192378998,0.031154103577136993
1778582567629175312,4.299175312,0.016798781231045723,0.09804379940032959,0.0383317656815052
1778582567639950208,4.309950208,0.0007635809597559273,0.08460476994514465,0.05100720748305321
1778582567650725104,4.320725104,-0.019853105768561363,0.07605266571044922,0.06780599057674408
1778582567661500000,4.3315,-0.0308486707508564,0.04886918142437935,0.07712167501449585
1778582567672274896,4.342274896,-0.036651886999607086,0.01511890348047018,0.08842267841100693
1778582567683049792,4.353049792,-0.036651886999607086,0.004581485874950886,0.11163553595542908
1778582567693824687,4.363824687,-0.03588830679655075,0.01511890348047018,0.14110976457595825
1778582567704599583,4.374599583,-0.02779434807598591,0.01954767294228077,0.1516471803188324
1778582567715374479,4.385374479,-0.017867794260382652,-0.003665188793092966,0.16050471365451813
1778582567726149375,4.396149375,-0.012980876490473747,-0.03023780696094036,0.1617264449596405
1778582567736924271,4.406924271,-0.02000582218170166,-0.05543597787618637,0.16416990756988525
1778582567747699167,4.417699167,-0.03756818547844887,-0.07528908550739288,0.18341214954853058
1778582567758474062,4.428474062,-0.046883873641490936,-0.0818558782339096,0.22006404399871826
1778582567769248958,4.439248958,-0.044440411031246185,-0.07009673118591309,0.26022839546203613
1778582567780023854,4.450023854,-0.03451386094093323,-0.046425722539424896,0.29443681240081787
1778582567790798750,4.46079875,-0.02977965772151947,-0.0256563201546669,0.3170388340950012
1778582567801573646,4.471573646,-0.03252854943275452,-0.003359756199643016,0.32620179653167725
1778582567812348542,4.482348542,-0.030543239787220955,0.009315688163042068,0.3266599476337433
1778582567823123437,4.493123437,-0.0334448479115963,-0.0009162971982732415,0.31154105067253113
1778582567833898333,4.503898333,-0.03756818547844887,-0.022754713892936707,0.29443681240081787
1778582567844673229,4.5146732290000005,-0.032681263983249664,-0.034208428114652634,0.2828303873538971
1778582567855448125,4.5254481250000005,-0.032070402055978775,-0.039858926087617874,0.27488914132118225
1778582567866223021,4.5362230210000005,-0.03222311660647392,-0.05253437161445618,0.2816086709499359
1778582567876997917,4.5469979170000006,-0.026572618633508682,-0.06887500733137131,0.2909243404865265
1778582567887772812,4.5577728120000005,-0.012675444595515728,-0.0668896958231926,0.30512696504592896
1778582567898547760,4.56854776,0.004428769461810589,-0.022754713892936707,0.32559093832969666
1778582567909322604,4.579322604000001,0.016340631991624832,0.00946840364485979,0.3396408259868622
1778582567920097552,4.5900975520000005,0.016646064817905426,-0.0032070400193333626,0.347582072019577
1778582567930872500,4.6008725,0.011759147047996521,-0.03329212963581085,0.3481929302215576
1778582567941647344,4.6116473440000005,0.009315688163042068,-0.06261363625526428,0.3454440236091614
1778582567952422292,4.622422292,0.013744457624852657,-0.07742711156606674,0.337350070476532
1778582567963197187,4.633197187,0.034208428114652634,-0.08460476994514465,0.3352120518684387
1778582567973972083,4.643972083,0.04566214233636856,-0.08093958348035812,0.3393353819847107
1778582567984746979,4.6547469790000005,0.05283980444073677,-0.05864302068948746,0.34666576981544495
1778582567995521875,4.6655218750000005,0.06765327602624893,-0.02932151034474373,0.35674503445625305
1778582568006296771,4.6762967710000005,0.09330959618091583,-0.011759147047996521,0.37323838472366333
1778582568017071667,4.6870716670000006,0.12904518842697144,0.01435532234609127,0.3860665261745453
1778582568027846562,4.6978465620000005,0.15607595443725586,0.026572618633508682,0.3903425931930542
1778582568038621458,4.7086214580000005,0.16218459606170654,0.02611446939408779,0.39996370673179626
1778582568049396354,4.719396354000001,0.15302163362503052,0.02764163166284561,0.40118545293807983
1778582568060171250,4.730171250000001,0.1441640853881836,0.027336198836565018,0.401949018239975
1778582568070946146,4.740946146000001,0.14370593428611755,0.021227551624178886,0.4068359434604645
1778582568081721042,4.751721042000001,0.15470150113105774,0.021991131827235222,0.42073312401771545
1778582568092495989,4.7624959890000005,0.16707152128219604,0.03955349326133728,0.4407389461994171
1778582568103270833,4.773270833000001,0.16584978997707367,0.046883873641490936,0.45509424805641174
1778582568114045781,4.7840457810000006,0.15347976982593536,0.035735588520765305,0.4712821841239929
1778582568124820729,4.7948207290000004,0.14004075527191162,0.010995565913617611,0.4712821841239929
1778582568135595573,4.805595573000001,0.14019346237182617,-0.01802051067352295,0.44898560643196106
1778582568146370521,4.8163705210000005,0.16829325258731842,-0.04428769648075104,0.41706791520118713
1778582568157145417,4.8271454170000005,0.19837833940982819,-0.07055488228797913,0.37843072414398193
1778582568167920312,4.8379203120000005,0.2052505612373352,-0.08674279600381851,0.35155269503593445
1778582568178695208,4.8486952080000005,0.1957821547985077,-0.07620538026094437,0.33719736337661743
1778582568189470104,4.859470104000001,0.17745621502399445,-0.05528326332569122,0.32192572951316833
1778582568200245000,4.870245000000001,0.14996729791164398,-0.05100720748305321,0.31322091817855835
1778582568211019896,4.881019896000001,0.12904518842697144,-0.05955931544303894,0.3263545036315918
1778582568221794792,4.891794792000001,0.12247838824987411,-0.04917461425065994,0.3422369956970215
1778582568232569687,4.902569687000001,0.12461641430854797,-0.0461202897131443,0.37110036611557007
1778582568243344635,4.9133446350000005,0.13683371245861053,-0.03588830679655075,0.40866854786872864
1778582568254119479,4.924119479000001,0.16081015765666962,-0.022754713892936707,0.4361574649810791
1778582568264894427,4.934894427000001,0.1847866028547287,-0.003970621153712273,0.4488328993320465
1778582568275669375,4.9456693750000005,0.1902843713760376,0.007024944759905338,0.4436405599117279
1778582568286444271,4.9564442710000005,0.1776089370250702,0.024434590712189674,0.4312705397605896
1778582568297219167,4.9672191670000005,0.1588248461484909,0.02764163166284561,0.4143190383911133
1778582568307994062,4.9779940620000005,0.15027274191379547,-0.009010255336761475,0.3825540542602539
1778582568318768958,4.9887689580000005,0.1461493968963623,-0.05222893878817558,0.3474293351173401
1778582568329543854,4.999543854000001,0.14294235408306122,-0.08032871782779694,0.3266599476337433
1778582568340318750,5.010318750000001,0.1519526094198227,-0.08155044913291931,0.32192572951316833
1778582568351093646,5.021093646000001,0.16615521907806396,-0.07971785217523575,0.33047783374786377
1778582568361868542,5.031868542000001,0.168904110789299,-0.09239330142736435,0.32910341024398804
1778582568372643489,5.0426434890000005,0.1695149689912796,-0.09987638890743256,0.30314165353775024
1778582568383418437,5.053418437,0.17302745580673218,-0.08384118974208832,0.2738201320171356
1778582568394193333,5.064193333,0.17883066833019257,-0.05864302068948746,0.25671592354774475
1778582568404968229,5.074968229,0.19379685819149017,-0.057726722210645676,0.2565632164478302
1778582568415743125,5.0857431250000005,0.2162461280822754,-0.06551524996757507,0.2680169343948364
1778582568426518021,5.0965180210000005,0.22647811472415924,-0.08109229803085327,0.2718348205089569
1778582568437292864,5.107292864000001,0.2341139316558838,-0.09315688163042068,0.2802342176437378
1778582568448067812,5.1180678120000005,0.249690979719162,-0.08277218043804169,0.2897026240825653
1778582568458842708,5.1288427080000005,0.2680169343948364,-0.07971785217523575,0.2977965772151947
1778582568469617604,5.139617604000001,0.2883281707763672,-0.09162971377372742,0.30634868144989014
1778582568480392552,5.1503925520000005,0.3066541254520416,-0.10995566099882126,0.2945895493030548
1778582568491167500,5.1611675,0.31520622968673706,-0.13759729266166687,0.2657261788845062
1778582568501942344,5.1719423440000005,0.31352636218070984,-0.16050471365451813,0.2237292230129242
1778582568512717292,5.182717292,0.32131487131118774,-0.1766926348209381,0.20708316564559937
1778582568523492187,5.193492187,0.3289506733417511,-0.20570871233940125,0.21029019355773926
1778582568534267083,5.204267083,0.3191768527030945,-0.2101374864578247,0.21838416159152985
1778582568545041979,5.215041979,0.2929096519947052,-0.1853974610567093,0.2254091054201126
1778582568555816875,5.2258168750000005,0.2756527364253998,-0.1637117564678192,0.2370155304670334
1778582568566591823,5.236591823,0.2724456787109375,-0.15302163362503052,0.2643517255783081
1778582568577366667,5.2473666670000005,0.27580544352531433,-0.11163553595542908,0.2863428592681885
1778582568588141614,5.258141614,0.27198755741119385,-0.05497783049941063,0.3139844834804535
1778582568598916562,5.268916562,0.2528980076313019,-0.02367101050913334,0.35613417625427246
1778582568609691458,5.279691458,0.23487751185894012,0.005803215317428112,0.3970620930194855
1778582568620466354,5.290466354,0.2263254076242447,0.04367683082818985,0.42684176564216614
1778582568631241250,5.30124125,0.228921577334404,0.08109229803085327,0.4500546157360077
1778582568642016146,5.312016146,0.24801109731197357,0.11881320178508759,0.45707955956459045
1778582568652791094,5.322791094,0.2683223485946655,0.09453132748603821,0.4428769648075104
1778582568663566042,5.333566042,0.2842048406600952,0.05528326332569122,0.41783151030540466
1778582568674340885,5.344340885,0.2952004075050354,0.014966187067329884,0.38698282837867737
1778582568685115833,5.355115833,0.3087921440601349,-0.036651886999607086,0.3462076187133789
1778582568695890729,5.365890729,0.3344484567642212,-0.08093958348035812,0.28954991698265076
1778582568706665625,5.376665625,0.3637699782848358,-0.12751802802085876,0.24373504519462585
1778582568717440521,5.387440521,0.38560840487480164,-0.14217877388000488,0.2286161482334137
1778582568728215417,5.398215417,0.3779725730419159,-0.12385283410549164,0.24373504519462585
1778582568738990364,5.408990364,0.34116798639297485,-0.0974329337477684,0.28588470816612244
1778582568749765312,5.419765312,0.30741769075393677,-0.07116574794054031,0.33979353308677673
1778582568760540208,5.430540208,0.29886558651924133,-0.04841103404760361,0.37140578031539917
1778582568771315104,5.441315104,0.3107774555683136,-0.017562363296747208,0.37552911043167114
1778582568782090000,5.45209,0.3318522870540619,-0.002901607658714056,0.3520108163356781
1778582568792864896,5.462864896,0.35353797674179077,-0.005803215317428112,0.3243691921234131
1778582568803639844,5.473639844,0.3652971386909485,-0.017104214057326317,0.29626941680908203
1778582568814414687,5.484414687,0.366060733795166,-0.02932151034474373,0.2779434621334076
1778582568825189635,5.495189635,0.3611738085746765,-0.03023780696094036,0.25549420714378357
1778582568835964583,5.505964583,0.3640754222869873,-0.04230238497257233,0.23793183267116547
1778582568846739479,5.516739479,0.3704894781112671,-0.06230820715427399,0.22663083672523499
1778582568857514375,5.527514375,0.3637699782848358,-0.08872810751199722,0.2309068888425827
1778582568868289271,5.538289271,0.34238970279693604,-0.10598503798246384,0.2577849328517914
1778582568879064167,5.549064167,0.3266599476337433,-0.09819651395082474,0.29733842611312866
1778582568889839114,5.559839114000001,0.3246746361255646,-0.07086031138896942,0.33490660786628723
1778582568900613437,5.5706134370000004,0.34208428859710693,-0.03130681812763214,0.3445277214050293
1778582568911388958,5.581388958000001,0.374765545129776,0.013744457624852657,0.33689191937446594
1778582568922163854,5.592163854000001,0.39629852771759033,0.02107483521103859,0.3324631452560425
1778582568932938750,5.602938750000001,0.39507678151130676,0.0032070400193333626,0.33200499415397644
1778582568943713646,5.613713646000001,0.370184063911438,-0.040775224566459656,0.3402516841888428
1778582568954488594,5.624488594000001,0.346513032913208,-0.08888082206249237,0.33765551447868347
1778582568965263542,5.635263542000001,0.3387245237827301,-0.11438442766666412,0.3246746361255646
1778582568976038437,5.6460384370000005,0.3289506733417511,-0.1389717310667038,0.31444263458251953
1778582568986813333,5.6568133330000006,0.3127627670764923,-0.1698204129934311,0.31490078568458557
1778582568997588229,5.667588229000001,0.3066541254520416,-0.18402300775051117,0.3283398151397705
1778582569008363125,5.678363125000001,0.3136790692806244,-0.16447533667087555,0.3347539007663727
1778582569019138073,5.6891380730000005,0.3191768527030945,-0.1340848207473755,0.33108872175216675
1778582569029913021,5.699913021,0.3127627670764923,-0.10949750989675522,0.3274235129356384
1778582569040687917,5.7106879170000004,0.2880227565765381,-0.11438442766666412,0.328645259141922
1778582569051462812,5.721462812,0.25702136754989624,-0.13225223124027252,0.33200499415397644
1778582569062237708,5.732237708,0.23487751185894012,-0.14019346237182617,0.33108872175216675
1778582569073012708,5.743012708,0.2240346521139145,-0.12018764764070511,0.3347539007663727
1778582569083787552,5.753787552,0.21380266547203064,-0.10338886082172394,0.3205513060092926
1778582569094562500,5.7645625,0.19883649051189423,-0.12782345712184906,0.30833399295806885
1778582569105337396,5.775337396,0.18417572975158691,-0.13775001466274261,0.3087921440601349
1778582569116112292,5.786112292,0.1776089370250702,-0.11972949653863907,0.31031930446624756
1778582569126887239,5.796887239,0.1637117564678192,-0.1055268943309784,0.3095557391643524
1778582569137662187,5.807662187,0.13515383005142212,-0.07895427197217941,0.3107774555683136
1778582569148437083,5.818437083,0.10094540566205978,-0.05711585655808449,0.30482152104377747
1778582569159211979,5.829211979,0.06551524996757507,-0.057726722210645676,0.28527384996414185
1778582569169986875,5.839986875,0.02977965772151947,-0.08674279600381851,0.2672533392906189
1778582569180761771,5.850761771,-0.0015271619195118546,-0.1262962967157364,0.25213444232940674
1778582569191536719,5.861536719,-0.010995565913617611,-0.12705987691879272,0.24205516278743744
1778582569202311667,5.872311667,0.003665188793092966,-0.10720676928758621,0.24113887548446655
1778582569213086562,5.883086562000001,0.02412915788590908,-0.0870482325553894,0.23518294095993042
1778582569223861458,5.893861458,0.0308486707508564,-0.0766635313630104,0.2383899837732315
1778582569234636406,5.904636406000001,0.013744457624852657,-0.07009673118591309,0.24572035670280457
1778582569245411354,5.915411354000001,-0.025350889191031456,-0.08353576064109802,0.2631300091743469
1778582569256186250,5.926186250000001,-0.0642935186624527,-0.10430516302585602,0.28069236874580383
1778582569266961146,5.936961146000001,-0.07788526266813278,-0.07910698652267456,0.28557929396629333
1778582569277736042,5.947736042000001,-0.06719512492418289,-0.046883873641490936,0.2672533392906189
1778582569288510937,5.958510937000001,-0.03695731982588768,-0.036193739622831345,0.2386954128742218
1778582569299285885,5.969285885000001,-0.005192350596189499,-0.04734202101826668,0.21914774179458618
1778582569310060833,5.9800608330000005,0.014660755172371864,-0.06795870512723923,0.20952661335468292
1778582569320835729,5.9908357290000005,0.022449281066656113,-0.10598503798246384,0.21746785938739777
1778582569331610625,6.0016106250000005,0.02977965772151947,-0.13362666964530945,0.22128576040267944
1778582569342385573,6.012385573,0.044440411031246185,-0.125074565410614,0.2260199636220932
1778582569353160521,6.023160521,0.052076224237680435,-0.10751219838857651,0.23273947834968567
1778582569363935417,6.033935417,0.04321868345141411,-0.08338304609060287,0.22036947309970856
1778582569374710312,6.044710312,0.02107483521103859,-0.07528908550739288,0.17898337543010712
1778582569385485260,6.05548526,0.001679878099821508,-0.06200277432799339,0.12064579129219055
1778582569396260208,6.066260208,0.008552107028663158,-0.04520399495959282,0.06200277432799339
1778582569407035104,6.077035104,0.028405211865901947,-0.04841103404760361,0.024892739951610565
1778582569417810000,6.08781,0.04153880476951599,-0.056657709181308746,-0.008399390615522861
1778582569428584896,6.098584896,0.047952886670827866,-0.06383536756038666,-0.04108065739274025
1778582569439359896,6.109359896,0.06307178735733032,-0.060781046748161316,-0.061391908675432205
1778582569450134792,6.120134792,0.08796452730894089,-0.03817904740571976,-0.06872228533029556
1778582569460909687,6.130909687,0.11163553595542908,0.005192350596189499,-0.0565049909055233
1778582569471684583,6.141684583,0.12263110280036926,0.04718930274248123,-0.029626941308379173
1778582569482459583,6.152459583000001,0.10995566099882126,0.07238747924566269,-0.0032070400193333626
1778582569493234479,6.163234479000001,0.07941242307424545,0.07895427197217941,0.022907428443431854
1778582569504009375,6.174009375000001,0.046425722539424896,0.07788526266813278,0.056657709181308746
1778582569514784323,6.184784323000001,0.022296564653515816,0.05589412897825241,0.07819069176912308
1778582569525559271,6.1955592710000005,0.008552107028663158,0.029016077518463135,0.08979712426662445
1778582569536334167,6.2063341670000005,-0.004886918235570192,0.009010255336761475,0.10308343172073364
1778582569547109062,6.2171090620000005,-0.013133592903614044,-0.005192350596189499,0.09957095980644226
1778582569557884010,6.22788401,-0.0021380267571657896,0.001221729558892548,0.08720094710588455
1778582569568658958,6.238658958,0.028405211865901947,0.024740023538470268,0.07223475724458694
1778582569579433854,6.249433854,0.06062832847237587,0.04841103404760361,0.04764745384454727
1778582569590208750,6.26020875,0.07284562289714813,0.03588830679655075,0.01802051067352295
1778582569600983750,6.27098375,0.0668896958231926,-0.009773836471140385,-0.010842849500477314
1778582569611758646,6.281758646,0.05329795181751251,-0.043982263654470444,-0.03405570983886719
1778582569622533542,6.292533542,0.0412333719432354,-0.0591011680662632,-0.04428769648075104
1778582569633308542,6.303308542000001,0.026878049597144127,-0.07238747924566269,-0.034208428114652634
1778582569644083437,6.314083437000001,0.007788525894284248,-0.06475166976451874,-0.014049889519810677
1778582569654858333,6.324858333000001,-0.0154243353754282,-0.05085449293255806,0.007788525894284248
1778582569665633333,6.3356333330000005,-0.029626941308379173,-0.03711003437638283,0.02779434807598591
1778582569676408229,6.346408229000001,-0.024740023538470268,-0.0308486707508564,0.037262752652168274
1778582569687183125,6.357183125000001,-0.013897174037992954,-0.021991131827235222,0.042913250625133514
1778582569697958125,6.367958125,-0.007330377586185932,-0.018631376326084137,0.048563748598098755
1778582569708733021,6.378733021,-0.008857538923621178,-0.028863361105322838,0.06200277432799339
1778582569719507917,6.389507917,-0.010537417605519295,-0.030543239787220955,0.07498364895582199
1778582569730282917,6.400282917,-0.0102319847792387,-0.03817904740571976,0.07864884287118912
1778582569741057812,6.411057812,-0.010537417605519295,-0.044440411031246185,0.07513637095689774
1778582569751832708,6.421832708,-0.012675444595515728,-0.04108065739274025,0.08429934084415436
1778582569762607708,6.432607708000001,-0.016340631991624832,-0.02764163166284561,0.09621120244264603
1778582569773382604,6.443382604,-0.0204639695584774,0.004581485874950886,0.11239911615848541
1778582569784157500,6.4541575,-0.017867794260382652,0.02932151034474373,0.1130099818110466
1778582569794932500,6.464932500000001,-0.016646064817905426,0.049632761627435684,0.10888664424419403
1778582569805707396,6.475707396000001,-0.0334448479115963,0.04566214233636856,0.10018182545900345
1778582569816482344,6.486482344000001,-0.05833758786320686,0.04108065739274025,0.09300415962934494
1778582569827257292,6.4972572920000005,-0.07284562289714813,0.041844237595796585,0.07589995115995407
1778582569838032187,6.508032187,-0.0668896958231926,0.04810560122132301,0.05543597787618637
1778582569848807187,6.518807187,-0.0513126403093338,0.02718348242342472,0.04978547990322113
1778582569859582083,6.529582083,-0.03955349326133728,0.006414080038666725,0.05436696484684944
1778582569870356979,6.540356979,-0.03390299528837204,-0.006566796451807022,0.06047561392188072
1778582569881131979,6.551131979,-0.0204639695584774,-0.004428769461810589,0.07574722915887833
1778582569891906875,6.561906875,0.000305432389723137,-0.003665188793092966,0.08399390429258347
1778582569902681823,6.572681823000001,0.010995565913617611,-0.017104214057326317,0.09132428467273712
1778582569913456771,6.583456771000001,0.01954767294228077,-0.014660755172371864,0.1026252806186676
1778582569924231667,6.594231667000001,0.03543015569448471,-0.002443459117785096,0.12263110280036926
1778582569935006667,6.6050066670000005,0.044898562133312225,-0.024740023538470268,0.13973531126976013
1778582569945781562,6.6157815620000004,0.04917461425065994,-0.05253437161445618,0.14706569910049438
1778582569956556458,6.6265564580000005,0.046425722539424896,-0.09315688163042068,0.14110976457595825
1778582569967331458,6.637331458,0.044440411031246185,-0.1156061589717865,0.14141519367694855
1778582569978106354,6.648106354,0.04886918142437935,-0.10109812021255493,0.13988803327083588
1778582569988881354,6.658881354,0.05787943676114082,-0.09865466505289078,0.1279761642217636
1778582569999656250,6.66965625,0.06795870512723923,-0.08521563559770584,0.1308777779340744
1778582570010431198,6.680431198000001,0.08384118974208832,-0.09804379940032959,0.13561198115348816
1778582570021206146,6.691206146000001,0.09162971377372742,-0.11575887352228165,0.14431680738925934
1778582570031981042,6.701981042000001,0.08674279600381851,-0.1389717310667038,0.14996729791164398
1778582570042756042,6.7127560420000005,0.07620538026094437,-0.14172062277793884,0.1455385386943817
1778582570053530937,6.7235309370000005,0.07910698652267456,-0.13881902396678925,0.12721258401870728
1778582570064305937,6.734305937,0.09529490768909454,-0.12675444781780243,0.11056652665138245
1778582570075080833,6.745080833,0.09865466505289078,-0.12553271651268005,0.10644318908452988
1778582570085855729,6.755855729,0.09315688163042068,-0.08628465235233307,0.1052214577794075
1778582570096630729,6.766630729,0.08918625861406326,-0.05864302068948746,0.13240493834018707
1778582570107405625,6.777405625,0.06887500733137131,-0.03940077871084213,0.17287473380565643
1778582570118180625,6.788180625000001,0.01908952370285988,0.16050471365451813,0.1948658674955368
1778582570128955521,6.798955521000001,0.06811141967773438,-0.028863361105322838,0.2961167097091675
1778582570139730521,6.8097305210000005,-0.006566796451807022,-0.0668896958231926,0.30222535133361816
1778582570150505417,6.820505417000001,-0.022449281066656113,-0.07009673118591309,0.3494146466255188
1778582570161280364,6.831280364,-0.016798781231045723,-0.06352993845939636,0.36621344089508057
1778582570172055312,6.842055312,0.008093958720564842,-0.05711585655808449,0.3617846667766571
1778582570182830260,6.85283026,0.036651886999607086,-0.03756818547844887,0.34345871210098267
1778582570193605208,6.863605208,0.052076224237680435,-0.05345066636800766,0.31291547417640686
1778582570204380104,6.874380104,0.05528326332569122,-0.08353576064109802,0.2816086709499359
1778582570215155104,6.885155104000001,0.05711585655808449,-0.09804379940032959,0.26160284876823425
1778582570225930000,6.895930000000001,0.06505709886550903,-0.08109229803085327,0.2522871494293213
1778582570236705000,6.9067050000000005,0.06811141967773438,-0.06551524996757507,0.25579962134361267
1778582570247479896,6.917479896000001,0.025961752980947495,0.08597921580076218,0.22204934060573578
1778582570258254896,6.928254896,0.08307760953903198,0.05345066636800766,0.2632827162742615
1778582570269029792,6.939029792,0.0899498388171196,-0.0717766135931015,0.2704603672027588
1778582570279804792,6.949804792,0.08918625861406326,-0.02977965772151947,0.27977606654167175
1778582570290579687,6.960579687,0.10094540566205978,-0.003359756199643016,0.2802342176437378
1778582570301354687,6.971354687000001,0.1182023361325264,-0.029016077518463135,0.25702136754989624
1778582570312129583,6.982129583000001,0.10949750989675522,-0.04108065739274025,0.2240346521139145
1778582570322904583,6.9929045830000005,0.10797034949064255,-0.04734202101826668,0.1905898153781891
1778582570333679479,7.0036794790000005,0.1185077652335167,-0.05711585655808449,0.18081597983837128
1778582570344454479,7.014454479,0.1389717310667038,-0.06673697382211685,0.18127411603927612
1778582570355229375,7.025229375,0.1490510106086731,-0.07254019379615784,0.18982623517513275
1778582570366004375,7.036004375,0.1519526094198227,-0.07651081681251526,0.1971566081047058
1778582570376779271,7.046779271,0.14752385020256042,-0.08429934084415436,0.20418155193328857
1778582570387554271,7.057554271000001,0.13515383005142212,-0.09010255336761475,0.2211330533027649
1778582570398329219,7.068329219000001,0.12415826320648193,-0.09239330142736435,0.23136503994464874
1778582570409104167,7.079104167000001,0.11927134543657303,-0.10354158282279968,0.24205516278743744
1778582570419879114,7.089879114,0.129197895526886,-0.09117157012224197,0.2724456787109375
1778582570430654062,7.100654062,0.1409570425748825,-0.0977383628487587,0.29825472831726074
1778582570441429062,7.111429062,0.1444695144891739,-0.09315688163042068,0.3121519088745117
1778582570452203958,7.122203958,0.1591302752494812,-0.0769689604640007,0.32299473881721497
1778582570462978958,7.132978958000001,0.19013166427612305,-0.049632761627435684,0.3329212963581085
1778582570473753854,7.143753854000001,0.22449280321598053,-0.03940077871084213,0.34636032581329346
1778582570484528854,7.1545288540000005,0.23625195026397705,-0.06154462695121765,0.36224281787872314
1778582570495303750,7.1653037500000005,0.23854269087314606,-0.08338304609060287,0.36774060130119324
1778582570506078750,7.17607875,0.24144430458545685,-0.07574722915887833,0.36224281787872314
1778582570516853750,7.18685375,0.23503021895885468,-0.06597339361906052,0.3536907136440277
1778582570527628646,7.197628646,0.2211330533027649,-0.07299833744764328,0.34865108132362366
1778582570538403646,7.208403646000001,0.2084576040506363,-0.09865466505289078,0.3552178740501404
1778582570549178646,7.2191786460000005,0.20616686344146729,-0.12980876863002777,0.39141160249710083
1778582570559953542,7.2299535420000005,0.21288637816905975,-0.15928299725055695,0.43432486057281494
1778582570570728542,7.240728542,0.21777328848838806,-0.1847866028547287,0.47006043791770935
1778582570581503437,7.251503437,0.22449280321598053,-0.1669187992811203,0.49480047821998596
1778582570592278437,7.262278437000001,0.24953825771808624,-0.11698060482740402,0.5174024701118469
1778582570603053437,7.273053437000001,0.29077163338661194,-0.09621120244264603,0.5314523577690125
1778582570613828333,7.283828333000001,0.3179551064968109,-0.10170898586511612,0.5458076596260071
1778582570624603333,7.294603333,0.3433060050010681,-0.0769689604640007,0.5299251675605774
1778582570635378281,7.305378281,0.3445277214050293,-0.035124726593494415,0.5086976289749146
1778582570646153229,7.316153229,0.3110828995704651,-0.036193739622831345,0.48991355299949646
1778582570656928229,7.326928229000001,0.2834412455558777,0.0009162971982732415,0.4786125421524048
1778582570667703125,7.337703125000001,0.263435423374176,-0.003665188793092966,0.48013970255851746
1778582570678478125,7.348478125000001,0.24526220560073853,-0.025350889191031456,0.4612029194831848
1778582570689253125,7.359253125,0.22724169492721558,-0.03222311660647392,0.45616328716278076
1778582570700028021,7.370028021,0.2228129357099533,-0.02611446939408779,0.42088583111763
1778582570710803021,7.380803021,0.2328922003507614,-0.015577051788568497,0.3938550651073456
1778582570721578021,7.391578021000001,0.24144430458545685,0.004428769461810589,0.3657552897930145
1778582570732352917,7.402352917000001,0.24220788478851318,0.024740023538470268,0.3539961278438568
1778582570743127917,7.413127917000001,0.23945899307727814,0.025961752980947495,0.3156643807888031
1778582570753902917,7.423902917,0.21548254787921906,-0.004428769461810589,0.29077163338661194
1778582570764677812,7.434677812,0.19837833940982819,-0.03222311660647392,0.258395791053772
1778582570775452812,7.445452812,0.1853974610567093,-0.010995565913617611,0.2542724609375
1778582570786227812,7.456227812000001,0.1640172004699707,0.0007635809597559273,0.24373504519462585
1778582570797002708,7.467002708000001,0.1510363221168518,-0.014966187067329884,0.21746785938739777
1778582570807777708,7.4777777080000005,0.14828743040561676,-0.04199695214629173,0.1692095398902893
1778582570818552708,7.488552708,0.15149445831775665,-0.06475166976451874,0.13500112295150757
1778582570829327604,7.499327604,0.16829325258731842,-0.05329795181751251,0.12156209349632263
1778582570840102604,7.510102604,0.17806708812713623,-0.04734202101826668,0.12996147572994232
1778582570850877604,7.520877604000001,0.16768237948417664,-0.022907428443431854,0.12431098520755768
1778582570861652500,7.531652500000001,0.1536324918270111,-0.024892739951610565,0.09621120244264603
1778582570872427500,7.5424275000000005,0.14248420298099518,-0.06322450190782547,0.056657709181308746
1778582570883202500,7.5532025,0.14202606678009033,-0.08384118974208832,0.02977965772151947
1778582570893977396,7.563977396,0.15118902921676636,-0.07864884287118912,0.005345067009329796
1778582570904752396,7.574752396,0.1698204129934311,-0.07895427197217941,0.005345067009329796
1778582570915527396,7.585527396000001,0.18906265497207642,-0.08888082206249237,-0.002290742937475443
1778582570926302292,7.596302292000001,0.20693044364452362,-0.10308343172073364,-0.02672533318400383
1778582570937077292,7.6070772920000005,0.19349141418933868,-0.1204930767416954,-0.06902772188186646
1778582570947852292,7.617852292,0.16294817626476288,-0.11285726726055145,-0.09407317638397217
1778582570958627239,7.628627239,0.1409570425748825,-0.10430516302585602,-0.0873536616563797
1778582570969402187,7.639402187000001,0.13362666964530945,-0.09896009415388107,-0.06475166976451874
1778582570980177187,7.650177187000001,0.13362666964530945,-0.07330377399921417,-0.033597562462091446
1778582570990952187,7.660952187,0.13164135813713074,-0.051618073135614395,-0.0015271619195118546
1778582571001727083,7.671727083,0.12904518842697144,-0.023976443335413933,0.03298669680953026
1778582571012502083,7.682502083,0.11942406743764877,0.016646064817905426,0.06475166976451874
1778582571023277083,7.693277083000001,0.10705405473709106,0.04810560122132301,0.09911280870437622
1778582571034051979,7.704051979000001,0.09819651395082474,0.06520981341600418,0.15515965223312378
1778582571044826979,7.714826979000001,0.09560033679008484,0.07376192510128021,0.23625195026397705
1778582571055601979,7.725601979,0.0925460159778595,0.08155044913291931,0.31413722038269043
1778582571066376927,7.736376927,0.09117157012224197,0.10537417232990265,0.3657552897930145
1778582571077151875,7.747151875,0.09162971377372742,0.10842850059270859,0.40485063195228577
1778582571087926875,7.757926875000001,0.0977383628487587,0.1409570425748825,0.40866854786872864
1778582571098701875,7.7687018750000005,0.09407317638397217,0.12492185086011887,0.3750709891319275
1778582571109476823,7.779476823,0.07864884287118912,0.10109812021255493,0.34177884459495544
1778582571120251771,7.790251771,0.06887500733137131,0.07162389904260635,0.3173442482948303
1778582571131026771,7.801026771,0.0717766135931015,0.06475166976451874,0.3072649836540222
1778582571141801771,7.811801771000001,0.06627883017063141,0.056199558079242706,0.30054548382759094
1778582571152576667,7.822576667000001,0.06261363625526428,0.04321868345141411,0.287106454372406
1778582571163351667,7.8333516670000005,0.06765327602624893,0.010690134018659592,0.27168211340904236
1778582571174126667,7.844126667,0.08307760953903198,-0.0021380267571657896,0.2623664140701294
1778582571184901562,7.854901562,0.09972367435693741,0.016187917441129684,0.2623664140701294
1778582571195676562,7.865676562000001,0.1026252806186676,0.032070402055978775,0.27366742491722107
1778582571206451562,7.876451562000001,0.09376774728298187,0.02779434807598591,0.27748534083366394
1778582571217226562,7.887226562,0.08643736690282822,0.04932733252644539,0.27137666940689087
1778582571228001458,7.898001458,0.08429934084415436,0.07819069176912308,0.25182899832725525
1778582571238776458,7.908776458,0.07238747924566269,0.07528908550739288,0.21716243028640747
1778582571249551458,7.919551458000001,0.054672397673130035,0.06017018109560013,0.1951712965965271
1778582571260326458,7.930326458000001,0.04108065739274025,0.05833758786320686,0.18570289015769958
1778582571271101354,7.941101354000001,0.03787361457943916,0.04718930274248123,0.1744018942117691
1778582571281876354,7.951876354,0.05589412897825241,0.05100720748305321,0.17165300250053406
1778582571292651354,7.962651354,0.08521563559770584,0.032681263983249664,0.1568395346403122
1778582571303426302,7.973426302000001,0.09896009415388107,-0.016340631991624832,0.13652828335762024
1778582571314201250,7.984201250000001,0.10583232343196869,-0.05787943676114082,0.12278381735086441
1778582571324976250,7.994976250000001,0.11927134543657303,-0.06017018109560013,0.12278381735086441
1778582571335751250,8.005751250000001,0.13194678723812103,-0.06933315098285675,0.11866047978401184
1778582571346526198,8.016526198000001,0.1383608728647232,-0.06276635825634003,0.1052214577794075
1778582571357301146,8.027301146000001,0.1285870373249054,-0.05940660089254379,0.07742711156606674
1778582571368076146,8.038076146,0.10186170041561127,-0.09193515032529831,0.0539088174700737
1778582571378851146,8.048851146,0.08842267841100693,-0.10063996911048889,0.047036588191986084
1778582571389626042,8.059626042,0.08796452730894089,-0.07651081681251526,0.0412333719432354
1778582571400401042,8.070401042,0.09010255336761475,-0.04245510324835777,0.030695954337716103
1778582571411176042,8.081176042000001,0.0977383628487587,-0.005803215317428112,0.017715077847242355
1778582571421951042,8.091951042,0.09208786487579346,-0.021227551624178886,-0.0
1778582571432725937,8.102725937,0.08261945843696594,-0.050549060106277466,-0.006719512399286032
1778582571443500937,8.113500937000001,0.08384118974208832,-0.04001164436340332,-0.0032070400193333626
1778582571454275937,8.124275937,0.0896444097161293,-0.028099779039621353,-0.014202605932950974
1778582571465050937,8.135050937,0.08796452730894089,-0.02718348242342472,-0.012217295356094837
1778582571475825833,8.145825833,0.0766635313630104,-0.024434590712189674,0.001832594396546483
1778582571486600833,8.156600833,0.06872228533029556,-0.007024944759905338,0.023823726922273636
1778582571497375833,8.167375833000001,0.06841685622930527,0.01908952370285988,0.05833758786320686
1778582571508150833,8.178150833,0.060781046748161316,0.022296564653515816,0.08124501258134842
1778582571518925729,8.188925729000001,0.041844237595796585,0.020769402384757996,0.0873536616563797
1778582571529700729,8.199700729,0.023518294095993042,0.0032070400193333626,0.07330377399921417
1778582571540475729,8.210475729,0.0256563201546669,-0.018784092739224434,0.04566214233636856
1778582571551250729,8.221250729000001,0.041844237595796585,-0.01740964688360691,0.026572618633508682
1778582571562025625,8.232025625,0.0513126403093338,-0.024892739951610565,0.01435532234609127
1778582571572800625,8.242800625000001,0.051618073135614395,-0.03817904740571976,0.005803215317428112
1778582571583575625,8.253575625,0.052076224237680435,-0.032681263983249664,-0.007635809946805239
1778582571594350625,8.264350625,0.05543597787618637,-0.032681263983249664,-0.02626718580722809
1778582571605125521,8.275125521,0.05818486958742142,-0.05742128938436508,-0.04276053607463837
1778582571615900521,8.285900521,0.061391908675432205,-0.08109229803085327,-0.0513126403093338
1778582571626675521,8.296675521000001,0.061850059777498245,-0.07483093440532684,-0.04505127668380737
1778582571637450417,8.307450417,0.0591011680662632,-0.06750056147575378,-0.0409279391169548
1778582571648225417,8.318225417,0.046425722539424896,-0.0717766135931015,-0.04520399495959282
1778582571659000417,8.329000417000001,0.02932151034474373,-0.06872228533029556,-0.04550942778587341
1778582571669775417,8.339775417,0.012522728182375431,-0.06719512492418289,-0.039706211537122726
1778582571680550312,8.350550312000001,0.00045814859913662076,-0.0591011680662632,-0.02916879393160343
1778582571691325312,8.361325312,-0.008246674202382565,-0.04001164436340332,-0.01893680728971958
1778582571702100312,8.372100312,-0.013744457624852657,-0.022296564653515816,-0.018325943499803543
1778582571712875312,8.382875312000001,-0.01908952370285988,-0.03787361457943916,-0.027488915249705315
1778582571723650208,8.393650208,-0.024434590712189674,-0.05742128938436508,-0.028099779039621353
1778582571734425208,8.404425208000001,-0.01802051067352295,-0.05833758786320686,-0.025045456364750862
1778582571745200208,8.415200208,-0.006872228812426329,-0.04734202101826668,-0.011300998739898205
1778582571755975208,8.425975208,-0.000305432389723137,-0.044440411031246185,0.0062613640911877155
1778582571766750104,8.436750104,0.004428769461810589,-0.04306596517562866,0.022449281066656113
1778582571777525104,8.447525104,0.01511890348047018,-0.0256563201546669,0.034208428114652634
1778582571788300104,8.458300104000001,0.024892739951610565,-0.010690134018659592,0.04566214233636856
1778582571799075104,8.469075104,0.015577051788568497,-0.021685699000954628,0.04367683082818985
1778582571809850000,8.47985,0.0009162971982732415,-0.02519817277789116,0.039248060435056686
1778582571820625000,8.490625,-0.003359756199643016,-0.017867794260382652,0.02779434807598591
1778582571831400000,8.5014,-0.003665188793092966,-0.032070402055978775,0.011606430634856224
1778582571842175000,8.512175000000001,-0.0015271619195118546,-0.04978547990322113,-0.002290742937475443
1778582571852949896,8.522949896,0.004123337101191282,-0.04001164436340332,-0.012217295356094837
1778582571863724896,8.533724896,0.013744457624852657,-0.03634645417332649,-0.024434590712189674
1778582571874499896,8.544499896000001,0.022754713892936707,-0.036651886999607086,-0.035735588520765305
1778582571885274896,8.555274896,0.028863361105322838,-0.024434590712189674,-0.03649916872382164
1778582571896049792,8.566049792000001,0.03252854943275452,-0.004886918235570192,-0.023823726922273636
1778582571906824792,8.576824792,0.03145953640341759,0.009010255336761475,-0.012980876490473747
1778582571917599792,8.587599792,0.028557928279042244,0.0007635809597559273,-0.01740964688360691
1778582571928374792,8.598374792000001,0.02977965772151947,-0.017104214057326317,-0.029932374134659767
1778582571939149687,8.609149687,0.03252854943275452,-0.011911863461136818,-0.037262752652168274
1778582571949924687,8.619924687000001,0.031001387163996696,-0.010079269297420979,-0.037720900028944016
1778582571960699687,8.630699687,0.02718348242342472,-0.016340631991624832,-0.02916879393160343
1778582571971474635,8.641474635,0.021227551624178886,-0.01588248461484909,-0.010079269297420979
1778582571982249583,8.652249583,0.011300998739898205,-0.013897174037992954,0.011911863461136818
1778582571993024583,8.663024583,-0.001221729558892548,-0.010079269297420979,0.028557928279042244
1778582572003799583,8.673799583000001,-0.009773836471140385,-0.013439024798572063,0.03543015569448471
1778582572014574531,8.684574531,-0.014966187067329884,-0.0007635809597559273,0.03222311660647392
1778582572025349479,8.695349479,-0.023518294095993042,0.0007635809597559273,0.01511890348047018
1778582572036124479,8.706124479000001,-0.03252854943275452,-0.018784092739224434,-0.009162971749901772
1778582572046899479,8.716899479,-0.04001164436340332,-0.0412333719432354,-0.03283398225903511
1778582572057674375,8.727674375000001,-0.04245510324835777,-0.04108065739274025,-0.04230238497257233
1778582572068449375,8.738449375,-0.03955349326133728,-0.008246674202382565,-0.04505127668380737
1778582572079224375,8.749224375,-0.03298669680953026,0.015577051788568497,-0.05604684352874756
1778582572089999375,8.759999375000001,-0.028863361105322838,0.012522728182375431,-0.07513637095689774
1778582572100774271,8.770774271,-0.021991131827235222,0.016340631991624832,-0.09560033679008484
1778582572111549271,8.781549271000001,-0.020769402384757996,0.01588248461484909,-0.11239911615848541
1778582572122324271,8.792324271,-0.022907428443431854,0.016340631991624832,-0.11591159552335739
1778582572133099271,8.803099271,-0.024740023538470268,0.017867794260382652,-0.10873392969369888
1778582572143874167,8.813874167,-0.028863361105322838,0.011300998739898205,-0.1029307171702385
1778582572154649167,8.824649167,-0.03390299528837204,0.01802051067352295,-0.09636391699314117
1778582572165424167,8.835424167000001,-0.03756818547844887,0.030543239787220955,-0.08750637620687485
1778582572176199062,8.846199062,-0.039858926087617874,0.03741546720266342,-0.08261945843696594
1778582572186974062,8.856974062,-0.03817904740571976,0.03787361457943916,-0.0720820426940918
1778582572197749062,8.867749062,-0.029626941308379173,0.050549060106277466,-0.0642935186624527
1778582572208524062,8.878524062,-0.02718348242342472,0.07360920310020447,-0.053145237267017365
1778582572219298958,8.889298958000001,-0.027336198836565018,0.08765909820795059,-0.043371398001909256
1778582572230073958,8.900073958,-0.024740023538470268,0.08261945843696594,-0.033597562462091446
1778582572240848958,8.910848958,-0.03222311660647392,0.07452550530433655,-0.028099779039621353
1778582572251623958,8.921623958000001,-0.04367683082818985,0.09086613357067108,-0.028405211865901947
1778582572262398854,8.932398854,-0.050090912729501724,0.10048725455999374,-0.03237583488225937
1778582572273173854,8.943173854000001,-0.05100720748305321,0.09728021919727325,-0.04520399495959282
1778582572283948854,8.953948854,-0.04978547990322113,0.08842267841100693,-0.07147117704153061
1778582572294723854,8.964723854,-0.050090912729501724,0.08750637620687485,-0.11392628401517868
1778582572305498750,8.97549875,-0.04841103404760361,0.09987638890743256,-0.14782927930355072
1778582572316273750,8.98627375,-0.04566214233636856,0.1107192412018776,-0.17531819641590118
1778582572327048750,8.997048750000001,-0.04734202101826668,0.10461059212684631,-0.20830489695072174
1778582572337823698,9.007823698000001,-0.04932733252644539,0.10048725455999374,-0.23884813487529755
1778582572348598646,9.018598646000001,-0.05451968312263489,0.06841685622930527,-0.27198755741119385
1778582572359373646,9.029373646,-0.051618073135614395,0.04673115536570549,-0.2788597643375397
1778582572370148646,9.040148646,-0.03711003437638283,0.05589412897825241,-0.2756527364253998
1778582572380923542,9.050923542000001,-0.022296564653515816,0.07498364895582199,-0.2724456787109375
1778582572391698542,9.061698542,-0.024892739951610565,0.060322895646095276,-0.2605338394641876
1778582572402473542,9.072473542000001,-0.028863361105322838,0.06154462695121765,-0.2516762912273407
1778582572413248542,9.083248542,-0.03375028073787689,0.06643154472112656,-0.2556469142436981
1778582572424023437,9.094023437,-0.03741546720266342,0.08032871782779694,-0.2614501118659973
1778582572434798437,9.104798437000001,-0.04367683082818985,0.07452550530433655,-0.2813032269477844
1778582572445573437,9.115573437,-0.05085449293255806,0.04108065739274025,-0.30375251173973083
1778582572456348437,9.126348437,-0.04199695214629173,0.018325943499803543,-0.3130682110786438
1778582572467123333,9.137123333,-0.032681263983249664,0.010995565913617611,-0.3130682110786438
1778582572477898333,9.147898333,-0.03756818547844887,0.004886918235570192,-0.3098611533641815
1778582572488673333,9.158673333000001,-0.04199695214629173,0.0015271619195118546,-0.29764387011528015
1778582572499448229,9.169448229,-0.03711003437638283,0.011300998739898205,-0.26221370697021484
1778582572510223229,9.180223229000001,-0.0383317656815052,0.0204639695584774,-0.2328922003507614
1778582572520998229,9.190998229,-0.046425722539424896,0.040317077189683914,-0.22067490220069885
1778582572531773229,9.201773229,-0.05345066636800766,0.046425722539424896,-0.22220206260681152
1778582572542548125,9.212548125000001,-0.05528326332569122,0.04062250629067421,-0.24297146499156952
1778582572553323125,9.223323125,-0.05451968312263489,0.026572618633508682,-0.27519458532333374
1778582572564098125,9.234098125000001,-0.05329795181751251,0.012675444595515728,-0.3150535225868225
1778582572574873125,9.244873125,-0.051618073135614395,0.0027488914784044027,-0.34895649552345276
1778582572585648021,9.255648021,-0.05451968312263489,-0.017867794260382652,-0.3761399984359741
1778582572596423021,9.266423021000001,-0.06307178735733032,-0.0435241162776947,-0.3721693754196167
1778582572607198021,9.277198021,-0.06383536756038666,-0.028863361105322838,-0.3426951467990875
1778582572617972969,9.287972969,-0.06307178735733032,-0.011759147047996521,-0.3127627670764923
1778582572628747917,9.298747917,-0.06276635825634003,-0.008857538923621178,-0.29184064269065857
1778582572639522917,9.309522917,-0.060322895646095276,0.007330377586185932,-0.26878049969673157
1778582572650297917,9.320297917000001,-0.06551524996757507,0.01802051067352295,-0.25243985652923584
1778582572661072812,9.331072812,-0.08032871782779694,0.04764745384454727,-0.23197589814662933
1778582572671847812,9.341847812000001,-0.09193515032529831,0.10506874322891235,-0.20479241013526917
1778582572682622812,9.352622812,-0.10751219838857651,0.15073087811470032,-0.1721111536026001
1778582572693397708,9.363397708,-0.13194678723812103,0.17348559200763702,-0.14691297709941864
1778582572704172708,9.374172708000001,-0.16447533667087555,0.1727220118045807,-0.1461493968963623
1778582572714947708,9.384947708,-0.1951712965965271,0.1617264449596405,-0.17088942229747772
1778582572725722708,9.395722708000001,-0.21899501979351044,0.14462223649024963,-0.20341797173023224
1778582572736497604,9.406497604,-0.23335035145282745,0.13362666964530945,-0.23686282336711884
1778582572747272604,9.417272604,-0.24510949850082397,0.12873975932598114,-0.2649625837802887
1778582572758047604,9.428047604000001,-0.25702136754989624,0.13881902396678925,-0.28664830327033997
1778582572768822552,9.438822552000001,-0.2655734717845917,0.13271036744117737,-0.31184646487236023
1778582572779597500,9.449597500000001,-0.26679518818855286,0.1279761642217636,-0.3159697949886322
1778582572790372500,9.4603725,-0.2666424810886383,0.1253799945116043,-0.3078758418560028
1778582572801147500,9.4711475,-0.27000224590301514,0.12950333952903748,-0.3032943606376648
1778582572811922396,9.481922396,-0.2721402645111084,0.13759729266166687,-0.30863943696022034
1778582572822697396,9.492697396,-0.2660316228866577,0.13759729266166687,-0.32559093832969666
1778582572833472396,9.503472396000001,-0.2507599890232086,0.12095122784376144,-0.3659079968929291
1778582572844247292,9.514247292,-0.2370155304670334,0.07605266571044922,-0.4283689260482788
1778582572855022292,9.525022292000001,-0.23014330863952637,0.05711585655808449,-0.4868592321872711
1778582572865797292,9.535797292,-0.22266021370887756,0.04810560122132301,-0.522442102432251
1778582572876572292,9.546572292,-0.2159406989812851,0.02367101050913334,-0.5436696410179138
1778582572887347187,9.557347187000001,-0.20738859474658966,-0.010995565913617611,-0.5296197533607483
1778582572898122187,9.568122187,-0.19272783398628235,-0.013439024798572063,-0.4995346665382385
1778582572908897187,9.578897187,-0.18417572975158691,0.006566796451807022,-0.48013970255851746
1778582572919672135,9.589672135,-0.19333870708942413,0.016187917441129684,-0.4667007029056549
1778582572930447083,9.600447083,-0.21135921776294708,0.0334448479115963,-0.44959646463394165
1778582572941222083,9.611222083000001,-0.2240346521139145,0.06872228533029556,-0.4315759539604187
1778582572951997083,9.621997083,-0.23426663875579834,0.07498364895582199,-0.4298960864543915
1778582572962771979,9.632771979000001,-0.24236060678958893,0.05283980444073677,-0.4251618981361389
1778582572973546979,9.643546979,-0.2409861534833908,0.05299251899123192,-0.4062250852584839
1778582572984321979,9.654321979,-0.2341139316558838,0.0691804364323616,-0.3863719701766968
1778582572995096875,9.665096875000001,-0.23212862014770508,0.061391908675432205,-0.37323838472366333
1778582573005871875,9.675871875,-0.21960589289665222,0.06200277432799339,-0.35216355323791504
1778582573016646875,9.686646875000001,-0.19837833940982819,0.07483093440532684,-0.33460119366645813
1778582573027421875,9.697421875,-0.17745621502399445,0.07971785217523575,-0.33017241954803467
1778582573038196771,9.708196771,-0.16829325258731842,0.06933315098285675,-0.33597561717033386
1778582573048971771,9.718971771000001,-0.1695149689912796,0.04321868345141411,-0.34116798639297485
1778582573059746771,9.729746771,-0.16859868168830872,0.0308486707508564,-0.3607156574726105
1778582573070521719,9.740521719,-0.1698204129934311,0.02932151034474373,-0.3753764033317566
1778582573081296667,9.751296667,-0.17516547441482544,0.03543015569448471,-0.38789913058280945
1778582573092071667,9.762071667,-0.18203771114349365,0.05039634555578232,-0.38881543278694153
1778582573102846667,9.772846667000001,-0.1957821547985077,0.05742128938436508,-0.36774060130119324
1778582573113621562,9.783621562,-0.20769402384757996,0.05177079141139984,-0.3335321843624115
1778582573124396562,9.794396562000001,-0.21471896767616272,0.06230820715427399,-0.2805396616458893
1778582573135171562,9.805171562,-0.2098320573568344,0.10430516302585602,-0.21899501979351044
1778582573145946562,9.815946562,-0.19868376851081848,0.11896591633558273,-0.1795942485332489
1778582573156721458,9.826721458,-0.1922696828842163,0.1029307171702385,-0.1640172004699707
1778582573167496458,9.837496458,-0.1805105358362198,0.09376774728298187,-0.15470150113105774
1778582573178271458,9.848271458000001,-0.16523891687393188,0.0974329337477684,-0.15347976982593536
1778582573189046354,9.859046354,-0.14950916171073914,0.08597921580076218,-0.1611155867576599
1778582573199821354,9.869821354,-0.12583814561367035,0.05451968312263489,-0.17302745580673218
1778582573210596354,9.880596354000001,-0.09239330142736435,0.02977965772151947,-0.1802051067352295
1778582573221371302,9.891371302000001,-0.06276635825634003,0.03130681812763214,-0.1815795600414276
1778582573232146250,9.902146250000001,-0.041844237595796585,0.04810560122132301,-0.16447533667087555
1778582573242921250,9.91292125,-0.03909534588456154,0.06643154472112656,-0.14691297709941864
1778582573253696250,9.92369625,-0.05039634555578232,0.056657709181308746,-0.13988803327083588
1778582573264471146,9.934471146,-0.06444623321294785,0.030543239787220955,-0.14492766559123993
1778582573275246146,9.945246146,-0.07544180005788803,0.013133592903614044,-0.15225805342197418
1778582573286021146,9.956021146000001,-0.0798705667257309,0.0154243353754282,-0.141262486577034
1778582573296796042,9.966796042,-0.08093958348035812,0.018784092739224434,-0.11117739230394363
1778582573307571042,9.977571042000001,-0.07910698652267456,0.021227551624178886,-0.07315105944871902
1778582573318346042,9.988346042,-0.07605266571044922,0.03695731982588768,-0.045967575162649155
1778582573329120989,9.999120989000001,-0.07605266571044922,0.04367683082818985,-0.03894263133406639
1778582573339895937,10.009895937000001,-0.08429934084415436,0.04810560122132301,-0.05192350596189499
1778582573350670937,10.020670937,-0.09010255336761475,0.054214250296354294,-0.06994401663541794
1778582573361445937,10.031445937,-0.08720094710588455,0.04001164436340332,-0.09926552325487137
1778582573372220833,10.042220833,-0.08399390429258347,0.012675444595515728,-0.12171480804681778
1778582573382995833,10.052995833,-0.08277218043804169,-0.011300998739898205,-0.1288924664258957
1778582573393770833,10.063770833000001,-0.08582650125026703,-0.028405211865901947,-0.13301581144332886
1778582573404545833,10.074545833,-0.09376774728298187,-0.0386371985077858,-0.14080433547496796
1778582573415320729,10.085320729000001,-0.10537417232990265,-0.04276053607463837,-0.13439024984836578
1778582573426095729,10.096095729,-0.11285726726055145,-0.029016077518463135,-0.1130099818110466
1778582573436870729,10.106870729,-0.11606431007385254,-0.004581485874950886,-0.09605848789215088
1778582573447645625,10.117645625,-0.12186752259731293,0.007330377586185932,-0.0899498388171196
1778582573458420625,10.128420625,-0.12431098520755768,0.02718348242342472,-0.08872810751199722
1778582573469195625,10.139195625000001,-0.12553271651268005,0.0412333719432354,-0.10140355676412582
1778582573479970573,10.149970573000001,-0.13652828335762024,0.012522728182375431,-0.13011419773101807
1778582573490745521,10.160745521,-0.1536324918270111,-0.006108647678047419,-0.14278964698314667
1778582573501520521,10.171520521000001,-0.15958842635154724,0.006872228812426329,-0.14004075527191162
1778582573512295521,10.182295521,-0.15027274191379547,0.028099779039621353,-0.14401137828826904
1778582573523070417,10.193070417000001,-0.13759729266166687,0.035735588520765305,-0.14767655730247498
1778582573533845417,10.203845417,-0.12247838824987411,0.0412333719432354,-0.1464548259973526
1778582573544620417,10.214620417,-0.09697478264570236,0.038789913058280945,-0.14049890637397766
1778582573555395312,10.225395312,-0.07162389904260635,0.021685699000954628,-0.1337793916463852
1778582573566170312,10.236170312,-0.053756099194288254,-0.00045814859913662076,-0.13103049993515015
1778582573576945312,10.246945312000001,-0.034208428114652634,-0.0007635809597559273,-0.12935061752796173
1778582573587720312,10.257720312,-0.016798781231045723,0.001221729558892548,-0.13881902396678925
1778582573598495208,10.268495208000001,-0.005192350596189499,-0.0021380267571657896,-0.14523309469223022
1778582573609270208,10.279270208,0.007330377586185932,-0.0,-0.13744457066059113
1778582573620045208,10.290045208,0.023518294095993042,-0.0007635809597559273,-0.12034036219120026
1778582573630820156,10.300820156,0.04153880476951599,0.016340631991624832,-0.1049160286784172
1778582573641595104,10.311595104,0.05589412897825241,0.021685699000954628,-0.09651663154363632
1778582573652370104,10.322370104,0.06811141967773438,0.011300998739898205,-0.0948367565870285
1778582573663145104,10.333145104000002,0.08093958348035812,0.008552107028663158,-0.08918625861406326
1778582573673920000,10.34392,0.08521563559770584,0.010079269297420979,-0.07895427197217941
1778582573684695000,10.354695000000001,0.08093958348035812,0.010995565913617611,-0.05742128938436508
1778582573695470000,10.36547,0.07131846249103546,0.013439024798572063,-0.043829549103975296
1778582573706245000,10.376245,0.06444623321294785,0.013897174037992954,-0.03176496922969818
1778582573717019896,10.387019896,0.06154462695121765,0.012980876490473747,-0.014966187067329884
1778582573727794896,10.397794896,0.059864748269319534,0.011453714221715927,-0.006414080038666725
1778582573738569844,10.408569844,0.05283980444073677,0.003359756199643016,-0.007330377586185932
1778582573749344792,10.419344792,0.04932733252644539,-0.003970621153712273,-0.013744457624852657
1778582573760119792,10.430119792000001,0.05039634555578232,0.0019853105768561363,-0.024434590712189674
1778582573770894792,10.440894792,0.047952886670827866,0.008093958720564842,-0.04260781779885292
1778582573781669739,10.451669739000002,0.03955349326133728,0.0009162971982732415,-0.05451968312263489
1778582573792444687,10.462444687000001,0.0386371985077858,0.0007635809597559273,-0.05329795181751251
1778582573803219687,10.473219687,0.0383317656815052,0.012217295356094837,-0.037720900028944016
1778582573813994687,10.483994687000001,0.026419902220368385,0.03298669680953026,-0.007941242307424545
1778582573824769583,10.494769583,0.003665188793092966,0.032070402055978775,0.01893680728971958
1778582573835544583,10.505544583,-0.0154243353754282,0.028557928279042244,0.034208428114652634
1778582573846319583,10.516319583000001,-0.024434590712189674,0.043982263654470444,0.037262752652168274
1778582573857094479,10.527094479,-0.016798781231045723,0.08231402933597565,0.05436696484684944
1778582573867869479,10.537869479000001,-0.011453714221715927,0.11163553595542908,0.017562363296747208
1778582573878644479,10.548644479,-0.02764163166284561,0.005650499369949102,-0.023212861269712448
1778582573889419427,10.559419427,-0.03176496922969818,-0.020311253145337105,-0.02626718580722809
1778582573900194375,10.570194375,-0.025350889191031456,-0.0,-0.022754713892936707
1778582573910969375,10.580969375,-0.01511890348047018,0.019242240116000175,-0.005192350596189499
1778582573921744375,10.591744375000001,-0.005803215317428112,0.016646064817905426,-0.0030543238390237093
1778582573932519375,10.602519375,0.0007635809597559273,-0.005650499369949102,0.003665188793092966
1778582573943294271,10.613294271000001,0.010690134018659592,-0.017562363296747208,0.009773836471140385
1778582573954069271,10.624069271000002,0.02611446939408779,0.034208428114652634,0.04199695214629173
1778582573964844271,10.634844271,0.03940077871084213,0.08353576064109802,0.047036588191986084
1778582573975619167,10.645619167000001,0.04199695214629173,0.07406735420227051,0.02626718580722809
